,,,,,,,,,,
,,,,,,,,,,
,,,,,,,,,,
,,,,,,,,,,
,,,,,,,,,,
,,,,,,,,,,
,,,,,,,,,,
,,,,,,,,,,
,,,,,,,,,,
index,Geomagnetism_X,Geomagnetism_Y,Geomagnetism_Z,Acceleration_X,Acceleration_Y,Acceleration_Z,Angular_velocity_X,Angular_velocity_Y,Angular_velocity_Z, 
1,-0.199083,0.262385,-0.63945,-0.042508,-0.52129,0.186162,60.886154,-50.178846,29.383898,
2,-0.199083,0.262385,-0.63945,-0.06148,-0.505579,0.131483,50.437538,-48.668203,30.390994,
3,-0.199083,0.262385,-0.63945,-0.08072,-0.485875,0.081405,37.722958,-46.779899,30.453937,
4,-0.229358,0.202752,-0.158716,-0.105838,-0.45898,0.03999,25.95253,-45.269256,30.13922,
5,-0.229358,0.202752,-0.158716,-0.139775,-0.426228,-0.010359,16.448067,-44.702765,30.453937,
6,-0.229358,0.202752,-0.158716,-0.168367,-0.388416,-0.066121,8.957795,-43.129178,31.209259,
7,-0.229358,0.202752,-0.158716,-0.208182,-0.36738,-0.130004,3.6076,-39.793174,30.831598,
8,-0.23211,0.201835,-0.151376,-0.233301,-0.352202,-0.194698,-0.861386,-35.513019,29.887446,
9,-0.23211,0.201835,-0.151376,-0.272314,-0.347142,-0.248836,-2.686746,-30.099881,28.565633,
10,-0.23211,0.201835,-0.151376,-0.297433,-0.331965,-0.335186,-3.756785,-25.630895,26.362612,
11,-0.237615,0.202752,-0.153211,-0.306518,-0.306934,-0.448064,-8.162828,-18.958887,22.711891,
12,-0.237615,0.202752,-0.153211,-0.33992,-0.292555,-0.560671,-14.142457,-8.699103,18.935283,
13,-0.237615,0.202752,-0.151376,-0.369314,-0.292821,-0.715776,-17.919065,3.763704,14.466297,
14,-0.237615,0.202752,-0.151376,-0.357289,-0.322645,-0.855994,-20.751521,19.6884,9.934368,
15,-0.237615,0.202752,-0.151376,-0.333774,-0.355397,-0.969954,-22.765712,39.326761,5.150664,
16,-0.23945,0.204587,-0.150459,-0.297433,-0.387351,-1.049807,-24.654016,59.972218,2.066434,
17,-0.23945,0.204587,-0.150459,-0.229292,-0.404925,-1.078501,-26.73115,80.491788,-2.780212,
18,-0.23945,0.204587,-0.150459,-0.155273,-0.411849,-1.016242,-30.381871,101.263131,-9.200446,
19,-0.23578,0.207339,-0.151376,-0.09221,-0.459247,-0.883604,-35.732066,118.257867,-16.564831,
20,-0.23578,0.207339,-0.151376,-0.031819,-0.520757,-0.71334,-48.446646,125.496365,-24.684538,
21,-0.234862,0.207339,-0.155963,0.033115,-0.593718,-0.554174,-72.050445,121.782701,-30.978885,
22,-0.234862,0.207339,-0.155963,0.103927,-0.655229,-0.440755,-104.906934,112.089407,-34.88138,
23,-0.234862,0.207339,-0.155963,0.193445,-0.676531,-0.313261,-143.931883,103.843813,-36.958514,
24,-0.222018,0.211927,-0.163303,0.259982,-0.698366,-0.163298,-179.935545,100.067205,-37.147344,
25,-0.222018,0.211927,-0.163303,0.314762,-0.716473,0.091421,-207.127122,99.123053,-35.321984,
26,-0.222018,0.211927,-0.163303,0.405081,-0.706887,0.38945,-224.688349,100.067205,-31.98598,
27,-0.211927,0.215596,-0.16789,0.471618,-0.653099,0.793049,-238.535911,106.613326,-26.384012,
28,-0.211927,0.215596,-0.16789,0.487384,-0.542326,1.302758,-245.019088,119.76851,-18.201361,
29,-0.202752,0.231193,-0.170642,0.475893,-0.414245,1.898816,-231.863904,133.804903,-10.018711,
30,-0.202752,0.231193,-0.170642,0.486582,-0.213736,2.52411,-199.888623,138.022115,-5.927386,
31,-0.202752,0.231193,-0.170642,0.479902,-0.040387,3.190548,-162.500205,133.112525,-2.402552,
32,-0.190826,0.245872,-0.175229,0.42726,0.09728,3.829376,-124.9859,122.223305,-1.332513,
33,-0.190826,0.245872,-0.175229,0.366602,0.182223,4.376711,-93.262393,105.4174,-0.577191,
34,-0.190826,0.245872,-0.175229,0.337208,0.235479,4.829034,-69.532707,75.959858,-2.276665,
35,-0.181651,0.256881,-0.181651,0.27842,0.286339,5.09458,-50.146119,41.466839,-2.906099,
36,-0.181651,0.256881,-0.181651,0.239406,0.266368,5.197984,-33.591988,4.330195,-2.276665,
37,-0.173394,0.270642,-0.181651,0.20066,0.231485,5.047751,-18.044952,-32.617619,-0.514248,
38,-0.173394,0.270642,-0.181651,0.14588,0.220834,4.620602,0.460427,-64.341126,-0.19953,
39,-0.173394,0.270642,-0.181651,0.102057,0.145743,4.06623,29.792082,-86.93783,-2.843156,
40,-0.17156,0.268807,-0.183486,0.06331,0.107931,3.403852,63.592723,-112.304047,-5.109121,
41,-0.17156,0.268807,-0.183486,0.000247,0.050414,2.766648,89.52543,-121.99734,-7.752746,
42,-0.17156,0.268807,-0.183486,-0.044913,-0.00657,2.204155,111.68153,-119.605489,-8.571011,
43,-0.179817,0.268807,-0.180734,-0.050791,-0.065151,1.669813,132.641704,-116.143598,-8.508068,
44,-0.179817,0.268807,-0.180734,-0.055067,-0.136781,1.246995,149.951157,-108.086834,-8.759842,
45,-0.191743,0.262385,-0.174312,-0.029147,-0.230512,0.924875,162.476907,-95.498141,-11.969958,
46,-0.191743,0.262385,-0.174312,0.014142,-0.325041,0.706699,167.008836,-84.231261,-15.494792,
47,-0.191743,0.262385,-0.174312,0.055561,-0.408121,0.559173,161.973359,-74.41208,-16.690718,
48,-0.2,0.249541,-0.173394,0.086825,-0.480283,0.461183,150.643535,-68.180677,-16.753662,
49,-0.2,0.249541,-0.173394,0.117021,-0.50771,0.376998,135.851821,-64.907617,-15.117132,
50,-0.2,0.249541,-0.173394,0.123167,-0.518893,0.29146,123.514902,-63.208144,-11.718184,
51,-0.210092,0.236697,-0.170642,0.123434,-0.519959,0.191305,114.702816,-64.026409,-9.074559,
52,-0.210092,0.236697,-0.170642,0.123969,-0.520757,0.101166,105.701901,-63.711691,-5.612668,
53,-0.219266,0.22844,-0.16789,0.101522,-0.517296,0.010214,93.994416,-62.452822,-2.906099,
54,-0.219266,0.22844,-0.16789,0.070525,-0.495993,-0.04609,83.419914,-61.382783,-0.388361,
55,-0.219266,0.22844,-0.16789,0.029908,-0.456317,-0.10131,74.607829,-61.131009,1.877604,
56,-0.224771,0.217431,-0.161468,-0.001623,-0.414511,-0.140019,66.928726,-60.879235,4.017682,
57,-0.224771,0.217431,-0.161468,-0.041706,-0.368977,-0.176562,61.830305,-60.690405,4.773003,
58,-0.224771,0.217431,-0.161468,-0.086064,-0.334894,-0.236385,55.158298,-63.019313,4.395343,
59,-0.229358,0.212844,-0.155963,-0.119466,-0.302674,-0.286462,45.905609,-65.096448,3.891795,
60,-0.229358,0.212844,-0.155963,-0.141645,-0.2843,-0.37958,31.743329,-65.159391,2.255265,
61,-0.23945,0.207339,-0.155046,-0.176918,-0.277111,-0.484878,14.622707,-61.50867,0.807565,
62,-0.23945,0.207339,-0.155046,-0.193485,-0.266992,-0.572581,0.271596,-55.591984,-2.276665,
63,-0.23945,0.207339,-0.155046,-0.212458,-0.282436,-0.66624,-7.533393,-48.98292,-4.102025,
64,-0.244954,0.206422,-0.147706,-0.225818,-0.298147,-0.762606,-10.995284,-40.296722,-4.542629,
65,-0.244954,0.206422,-0.147706,-0.256014,-0.3072,-0.849497,-12.631814,-29.53339,-4.416742,
66,-0.244954,0.206422,-0.147706,-0.263496,-0.304538,-0.965894,-14.457174,-15.434053,-5.675612,
67,-0.248624,0.204587,-0.144954,-0.283805,-0.288561,-1.065507,-17.604348,1.560682,-7.941577,
68,-0.248624,0.204587,-0.144954,-0.303579,-0.285898,-1.125871,-21.506843,19.562513,-10.962863,
69,-0.251376,0.207339,-0.144954,-0.30251,-0.305869,-1.182987,-26.668207,39.452648,-14.928301,
70,-0.251376,0.207339,-0.144954,-0.27846,-0.315721,-1.205454,-33.717875,58.839236,-18.516079,
71,-0.251376,0.207339,-0.144954,-0.237309,-0.366581,-1.175678,-40.89343,78.729371,-21.285591,
72,-0.249541,0.208257,-0.144037,-0.186805,-0.416109,-1.140759,-46.747172,96.353541,-24.558651,
73,-0.249541,0.208257,-0.144037,-0.122405,-0.441139,-1.055221,-53.859784,109.068121,-28.020542,
74,-0.249541,0.208257,-0.144037,-0.016855,-0.46404,-0.886311,-64.245456,118.32081,-31.482433,
75,-0.245872,0.210092,-0.150459,0.088696,-0.515165,-0.623471,-80.044265,122.66391,-35.951419,
76,-0.245872,0.210092,-0.150459,0.167792,-0.607831,-0.322464,-106.417577,119.390849,-41.61633,
77,-0.234862,0.212844,-0.152294,0.246087,-0.67094,-0.011441,-144.43543,110.264047,-45.267051,
78,-0.234862,0.212844,-0.152294,0.320908,-0.701828,0.282257,-185.789287,98.430675,-45.644712,
79,-0.234862,0.212844,-0.152294,0.407486,-0.714876,0.543743,-220.72291,86.912021,-41.742217,
80,-0.229358,0.216514,-0.162385,0.494331,-0.713544,0.833923,-241.746028,80.17707,-31.60832,
81,-0.229358,0.216514,-0.162385,0.580108,-0.684786,1.165789,-249.551017,83.198357,-17.886644,
82,-0.229358,0.216514,-0.162385,0.614045,-0.569487,1.600787,-238.976515,95.78705,-3.850251,
83,-0.222018,0.22844,-0.166972,0.668023,-0.417174,2.200636,-208.260104,109.005178,9.241989,
84,-0.222018,0.22844,-0.166972,0.696348,-0.22705,2.828636,-164.76617,113.159446,23.404269,
85,-0.211927,0.245872,-0.168807,0.682452,-0.034529,3.481269,-123.286426,106.8651,33.475224,
86,-0.211927,0.245872,-0.168807,0.606563,0.126837,4.055673,-86.338612,97.675354,37.188888,
87,-0.211927,0.245872,-0.168807,0.488453,0.270096,4.484716,-50.838497,71.553816,36.055906,
88,-0.202752,0.258716,-0.173394,0.331062,0.38859,4.704246,-17.478461,30.57762,36.433567,
89,-0.202752,0.258716,-0.173394,0.137329,0.454894,4.714802,10.468438,-12.790428,35.111754,
90,-0.202752,0.258716,-0.173394,-0.028345,0.509482,4.513139,26.770795,-49.423525,32.216354,
91,-0.191743,0.265138,-0.177064,-0.129353,0.526257,4.112788,38.226506,-67.803017,24.600195,
92,-0.191743,0.265138,-0.177064,-0.155273,0.400839,3.590357,54.843581,-76.929819,12.074445,
93,-0.195413,0.266972,-0.170642,-0.142981,0.20965,3.012164,75.426094,-90.777381,1.814661,
94,-0.195413,0.266972,-0.170642,-0.101028,0.040828,2.464558,92.987321,-98.141767,-6.745651,
95,-0.195413,0.266972,-0.170642,-0.052395,-0.117609,1.964323,107.149601,-96.190519,-13.165884,
96,-0.199083,0.26422,-0.172477,0.01147,-0.243293,1.549627,119.045915,-92.539798,-13.984149,
97,-0.199083,0.26422,-0.172477,0.084955,-0.35806,1.226423,130.879287,-90.966212,-12.158789,
98,-0.199083,0.26422,-0.172477,0.133856,-0.444069,0.972516,141.390846,-87.567265,-9.200446,
99,-0.210092,0.258716,-0.169725,0.173404,-0.517562,0.80144,145.293341,-83.412996,-6.053273,
100,-0.210092,0.258716,-0.169725,0.166991,-0.555108,0.666907,145.733945,-78.503406,-2.024891,
101,-0.217431,0.246789,-0.16422,0.15844,-0.555906,0.551052,142.083224,-76.929819,1.940548,
102,-0.217431,0.246789,-0.16422,0.135726,-0.524219,0.434655,132.578761,-78.314575,6.34659,
103,-0.217431,0.246789,-0.16422,0.104462,-0.48694,0.298228,119.48652,-77.118649,10.374972,
104,-0.230275,0.234862,-0.161468,0.06331,-0.449927,0.162883,104.128314,-73.279098,13.648032,
105,-0.230275,0.234862,-0.161468,0.028839,-0.411582,0.069495,90.469582,-67.86596,16.480488,
106,-0.230275,0.234862,-0.161468,-0.008037,-0.368711,-0.000343,81.657497,-62.075161,18.494679,
107,-0.236697,0.225688,-0.154128,-0.051593,-0.319449,-0.078572,75.489037,-56.347306,18.809396,
108,-0.236697,0.225688,-0.154128,-0.105838,-0.285898,-0.12459,71.71243,-49.864129,19.312944,
109,-0.241284,0.220183,-0.150459,-0.13443,-0.258737,-0.184954,68.250539,-45.70986,19.879435,
110,-0.241284,0.220183,-0.150459,-0.162221,-0.243559,-0.267785,65.858687,-41.807365,21.201248,
111,-0.241284,0.220183,-0.150459,-0.200967,-0.246488,-0.353864,66.802839,-37.149549,21.704796,
112,-0.247706,0.216514,-0.146789,-0.231964,-0.225719,-0.445086,68.439369,-34.002376,20.382983,
113,-0.247706,0.216514,-0.146789,-0.273383,-0.229447,-0.525211,68.691143,-29.91105,17.991131,
114,-0.247706,0.216514,-0.146789,-0.303579,-0.238234,-0.608854,65.040422,-25.127347,13.081541,
115,-0.250459,0.215596,-0.143119,-0.314267,-0.258471,-0.707926,55.473015,-19.714209,7.479572,
116,-0.250459,0.215596,-0.143119,-0.320413,-0.280572,-0.824323,38.226506,-14.238128,1.62583,
117,-0.254128,0.211009,-0.142202,-0.326559,-0.303739,-0.90174,17.077502,-6.621968,-4.039082,
118,-0.254128,0.211009,-0.142202,-0.326559,-0.335692,-0.978075,-1.050216,1.8754,-8.633955,
119,-0.254128,0.211009,-0.142202,-0.320948,-0.356462,-1.029776,-16.408422,13.897601,-14.110036,
120,-0.255046,0.206422,-0.140367,-0.298234,-0.377765,-1.053056,-27.486472,27.996938,-17.194266,
121,-0.255046,0.206422,-0.140367,-0.27846,-0.406789,-1.048454,-35.732066,41.907443,-18.075474,
122,-0.255046,0.206422,-0.140367,-0.243455,-0.465105,-1.028964,-41.711695,55.377345,-18.327248,
123,-0.255963,0.208257,-0.142202,-0.194287,-0.50771,-0.960209,-48.69842,68.091925,-18.704909,
124,-0.255963,0.208257,-0.142202,-0.136301,-0.532474,-0.792111,-55.936918,80.051183,-20.026722,
125,-0.252294,0.207339,-0.143119,-0.087133,-0.56496,-0.588281,-66.889081,87.856173,-23.740386,
126,-0.252294,0.207339,-0.143119,-0.059075,-0.61076,-0.347909,-86.149781,89.870364,-26.761673,
127,-0.252294,0.207339,-0.143119,-0.055601,-0.652566,-0.111867,-110.320072,85.590208,-29.405298,
128,-0.246789,0.210092,-0.149541,-0.029681,-0.657892,0.068412,-132.098511,74.826876,-29.657072,
129,-0.246789,0.210092,-0.149541,0.007996,-0.66801,0.20105,-151.170381,64.18943,-29.531185,
130,-0.246789,0.210092,-0.149541,0.036321,-0.66375,0.381059,-165.080887,59.405727,-28.649977,
131,-0.237615,0.216514,-0.151376,0.099117,-0.644578,0.64444,-175.781276,57.706253,-26.258125,
132,-0.237615,0.216514,-0.151376,0.186497,-0.608896,0.95438,-184.089814,60.035162,-22.103856,
133,-0.233945,0.226606,-0.156881,0.283764,-0.559102,1.387754,-192.146577,66.895999,-15.117132,
134,-0.233945,0.226606,-0.156881,0.364197,-0.465904,1.945917,-190.447104,77.407558,-4.479686,
135,-0.233945,0.226606,-0.156881,0.425657,-0.342616,2.498665,-170.997573,80.491788,6.976025,
136,-0.226606,0.23578,-0.163303,0.448637,-0.182581,3.020826,-140.595879,75.519254,15.599279,
137,-0.226606,0.23578,-0.163303,0.400805,-0.018286,3.501841,-103.648065,69.539625,21.201248,
138,-0.226606,0.23578,-0.163303,0.307012,0.091421,3.856986,-68.14795,54.055532,25.733177,
139,-0.220183,0.252294,-0.16055,0.185161,0.199531,4.076245,-40.075165,25.793916,30.705711,
140,-0.220183,0.252294,-0.16055,0.024029,0.339595,4.101961,-15.904874,-6.244307,31.649863,
141,-0.215596,0.26055,-0.163303,-0.116259,0.484984,3.968781,5.873565,-30.918146,24.663138,
142,-0.215596,0.26055,-0.163303,-0.234904,0.53105,3.721642,25.511926,-46.402238,15.158675,
143,-0.215596,0.26055,-0.163303,-0.30438,0.469806,3.327517,42.129001,-57.102627,5.717155,
144,-0.214679,0.26422,-0.162385,-0.292623,0.281013,2.862743,54.528864,-64.718787,-1.080739,
145,-0.214679,0.26422,-0.162385,-0.217268,0.083167,2.41015,64.851592,-71.705511,-10.836976,
146,-0.214679,0.26422,-0.162385,-0.158213,-0.064885,1.981918,70.138843,-71.831398,-18.767853,
147,-0.218349,0.258716,-0.16055,-0.08072,-0.226251,1.648428,75.929642,-67.047695,-23.551556,
148,-0.218349,0.258716,-0.16055,-0.002158,-0.360989,1.369347,86.755918,-66.921808,-22.922121,
149,-0.222936,0.255046,-0.157798,0.07106,-0.480016,1.099199,97.456307,-67.86596,-20.404383,
150,-0.222936,0.255046,-0.157798,0.105531,-0.560966,0.878587,105.13541,-67.425356,-16.501888,
151,-0.222936,0.255046,-0.157798,0.140269,-0.621145,0.693164,107.653148,-64.089352,-12.53645,
152,-0.233028,0.247706,-0.156881,0.16325,-0.648838,0.552135,105.13541,-60.879235,-9.326333,
153,-0.233028,0.247706,-0.156881,0.144812,-0.649637,0.445483,97.771024,-55.969645,-6.17916,
154,-0.233028,0.247706,-0.156881,0.133856,-0.64298,0.342892,87.70007,-52.507754,-2.276665,
155,-0.240367,0.237615,-0.149541,0.106065,-0.611825,0.268452,77.503228,-49.864129,2.821756,
156,-0.240367,0.237615,-0.149541,0.049148,-0.578806,0.190223,71.838316,-46.024578,7.98312,
157,-0.243119,0.233028,-0.147706,0.026167,-0.539397,0.126881,72.341864,-44.513934,11.759728,
158,-0.243119,0.233028,-0.147706,-0.006968,-0.50771,0.05569,74.293112,-42.62563,14.277467,
159,-0.243119,0.233028,-0.147706,-0.033422,-0.481082,0.005071,72.530695,-39.415514,15.599279,
160,-0.246789,0.229358,-0.144954,-0.056403,-0.441139,-0.033909,69.194691,-37.275436,15.473393,
161,-0.246789,0.229358,-0.144954,-0.082323,-0.439276,-0.102393,63.844496,-36.897775,14.969845,
162,-0.246789,0.229358,-0.144954,-0.114122,-0.449394,-0.187119,55.410072,-37.149549,15.095732,
163,-0.252294,0.222018,-0.144037,-0.144585,-0.446199,-0.297831,45.465005,-36.960719,14.969845,
164,-0.252294,0.222018,-0.144037,-0.186003,-0.427027,-0.402859,38.66711,-34.63181,14.403354,
165,-0.256881,0.218349,-0.142202,-0.21994,-0.4225,-0.505992,33.820463,-30.225768,11.25618,
166,-0.256881,0.218349,-0.142202,-0.248532,-0.417973,-0.593966,25.511926,-22.609608,5.968929,
167,-0.256881,0.218349,-0.142202,-0.296097,-0.41105,-0.645126,14.182102,-12.790428,1.185226,
168,-0.258716,0.216514,-0.138532,-0.313733,-0.414245,-0.698723,5.873565,-3.160078,-3.724364,
169,-0.258716,0.216514,-0.138532,-0.318543,-0.425695,-0.752049,-1.427877,7.036764,-7.060368,
170,-0.258716,0.216514,-0.138532,-0.301975,-0.465371,-0.810788,-9.044036,18.555418,-9.263389,
171,-0.26055,0.215596,-0.140367,-0.284072,-0.510905,-0.821887,-15.46427,32.906528,-9.64105,
172,-0.26055,0.215596,-0.140367,-0.243455,-0.560699,-0.783178,-21.506843,46.124656,-11.907015,
173,-0.26055,0.217431,-0.137615,-0.199898,-0.591854,-0.718212,-28.682398,57.64331,-14.235923,
174,-0.26055,0.217431,-0.137615,-0.143783,-0.641116,-0.581514,-39.193956,67.210717,-13.921206,
175,-0.26055,0.217431,-0.137615,-0.099158,-0.682922,-0.464305,-49.894345,72.560911,-12.473506,
176,-0.256881,0.213761,-0.141284,-0.066557,-0.708485,-0.330043,-60.594735,73.693893,-11.466411,
177,-0.256881,0.213761,-0.141284,-0.053731,-0.68452,-0.176833,-69.973311,74.575102,-14.298867,
178,-0.256881,0.213761,-0.141284,-0.034491,-0.635258,0.019688,-79.100113,73.756837,-19.712005,
179,-0.251376,0.222018,-0.144954,-0.025138,-0.575079,0.262497,-91.248202,69.665512,-25.188086,
180,-0.251376,0.222018,-0.144954,-0.002425,-0.553244,0.512614,-106.921125,63.685883,-27.516994,
181,-0.243119,0.222936,-0.150459,0.039528,-0.53274,0.753257,-126.937147,56.447384,-28.398203,
182,-0.243119,0.222936,-0.150459,0.089498,-0.457116,0.997149,-142.358296,53.237267,-29.027637,
183,-0.243119,0.222936,-0.150459,0.14588,-0.335692,1.314939,-146.197847,54.55908,-30.664168,
184,-0.23945,0.230275,-0.152294,0.211081,-0.228648,1.687137,-139.462897,58.272744,-30.915941,
185,-0.23945,0.230275,-0.152294,0.255439,-0.114946,2.120782,-127.377751,60.72754,-29.342355,
186,-0.23945,0.230275,-0.152294,0.282161,-0.015357,2.581767,-112.64898,59.46867,-25.691634,
187,-0.233028,0.236697,-0.156881,0.334001,0.064261,3.009457,-94.710093,56.510327,-21.285591,
188,-0.233028,0.236697,-0.156881,0.364464,0.120979,3.394919,-70.162141,48.831225,-14.047093,
189,-0.229358,0.245872,-0.159633,0.374885,0.142281,3.652886,-42.278186,30.011129,-5.864442,
190,-0.229358,0.245872,-0.159633,0.329726,0.152932,3.764681,-16.534309,6.78499,0.052244,
191,-0.229358,0.245872,-0.159633,0.243147,0.139884,3.697821,6.565943,-14.301071,4.395343,
192,-0.222018,0.250459,-0.165138,0.15844,0.124973,3.499405,27.903778,-32.491733,7.542516,
193,-0.222018,0.250459,-0.165138,0.069991,0.072516,3.165645,48.549234,-48.353486,10.752633,
194,-0.222018,0.250459,-0.165138,0.00185,-0.016156,2.815643,67.621104,-60.375688,10.689689,
195,-0.224771,0.252294,-0.159633,-0.056136,-0.123467,2.461581,80.272741,-68.180677,6.724251,
196,-0.224771,0.252294,-0.159633,-0.069497,-0.191368,2.105082,85.685879,-75.356232,3.577078,
197,-0.229358,0.250459,-0.157798,-0.067893,-0.278442,1.794872,86.504144,-78.251632,2.003491,
198,-0.229358,0.250459,-0.157798,-0.058808,-0.356462,1.526889,87.448296,-78.566349,0.304017,
199,-0.229358,0.250459,-0.157798,-0.027009,-0.421435,1.271899,88.329504,-77.244536,-1.521343,
200,-0.23578,0.241284,-0.155963,-0.001891,-0.489869,1.056159,89.084826,-75.922724,-2.150778,
201,-0.23578,0.241284,-0.155963,0.029641,-0.531409,0.890497,90.343695,-75.104459,-2.654325,
202,-0.23578,0.241284,-0.155963,0.048079,-0.57428,0.724564,88.455391,-73.467928,-1.899004,
203,-0.238532,0.233945,-0.151376,0.044605,-0.584398,0.569188,80.776289,-68.243621,-0.262474,
204,-0.238532,0.233945,-0.151376,0.040062,-0.58067,0.472823,71.838316,-61.634557,2.129378,
205,-0.246789,0.229358,-0.146789,0.029908,-0.562297,0.379976,65.669857,-57.606175,4.52123,
206,-0.246789,0.229358,-0.146789,0.005591,-0.534604,0.315281,62.837401,-54.96255,5.717155,
207,-0.246789,0.229358,-0.146789,-0.025406,-0.488005,0.239759,59.18668,-50.808281,6.283647,
208,-0.253211,0.223853,-0.143119,-0.064152,-0.449128,0.156928,55.976563,-45.395143,7.353686,
209,-0.253211,0.223853,-0.143119,-0.091943,-0.419304,0.086819,55.284185,-40.107892,7.605459,
210,-0.253211,0.223853,-0.143119,-0.117596,-0.395606,0.01671,56.165394,-34.505923,7.164855,
211,-0.258716,0.220183,-0.13945,-0.141912,-0.389481,-0.051503,56.480111,-28.903955,6.34659,
212,-0.258716,0.220183,-0.13945,-0.176116,-0.385753,-0.12486,55.535959,-25.127347,5.213608,
213,-0.262385,0.217431,-0.138532,-0.187606,-0.391611,-0.215,52.137012,-21.791343,3.577078,
214,-0.262385,0.217431,-0.138532,-0.213526,-0.403594,-0.308117,47.290365,-17.951792,-0.136587,
215,-0.262385,0.217431,-0.138532,-0.239447,-0.403328,-0.389866,40.744245,-12.035106,-4.794403,
216,-0.266972,0.212844,-0.13578,-0.258419,-0.394008,-0.455643,33.316916,-6.810799,-8.19335,
217,-0.266972,0.212844,-0.13578,-0.27846,-0.409718,-0.50924,24.819548,-1.460604,-11.025806,
218,-0.266972,0.212844,-0.13578,-0.286744,-0.432352,-0.577995,16.13335,4.581969,-12.662336,
219,-0.265138,0.211009,-0.13578,-0.288614,-0.463241,-0.652976,7.887756,11.946354,-14.047093,
220,-0.265138,0.211009,-0.13578,-0.283537,-0.4912,-0.708197,-1.805538,19.940174,-15.620679,
221,-0.26789,0.209174,-0.134862,-0.278193,-0.534338,-0.732288,-12.19121,29.822298,-16.061284,
222,-0.26789,0.209174,-0.134862,-0.249334,-0.564694,-0.734725,-19.744426,40.648574,-15.620679,
223,-0.26789,0.209174,-0.134862,-0.196959,-0.576943,-0.681399,-26.794094,51.978398,-15.243019,
224,-0.266972,0.206422,-0.134862,-0.147257,-0.59718,-0.547407,-29.81538,63.308222,-14.802414,
225,-0.266972,0.206422,-0.134862,-0.093012,-0.644045,-0.386347,-31.577797,70.987324,-12.410563,
226,-0.266972,0.206422,-0.134862,-0.059342,-0.669608,-0.238009,-32.710779,73.316233,-9.766937,
227,-0.261468,0.210092,-0.13945,-0.040904,-0.682922,-0.074783,-36.550331,71.616759,-9.389276,
228,-0.261468,0.210092,-0.13945,-0.007769,-0.65443,0.135272,-46.180681,68.847247,-12.158789,
229,-0.256881,0.209174,-0.144037,0.01628,-0.623808,0.356426,-63.867795,63.811769,-17.44604,
230,-0.256881,0.209174,-0.144037,0.03258,-0.555374,0.590302,-83.75793,56.762101,-25.25103,
231,-0.256881,0.209174,-0.144037,0.043804,-0.485875,0.832299,-106.417577,50.593642,-33.181906,
232,-0.252294,0.211927,-0.148624,0.060905,-0.40173,1.149006,-131.028472,47.824129,-40.672179,
233,-0.252294,0.211927,-0.148624,0.084153,-0.290691,1.52364,-152.366307,50.341868,-45.95943,
234,-0.252294,0.211927,-0.148624,0.171266,-0.15329,1.987873,-162.185488,56.510327,-47.658903,
235,-0.244954,0.215596,-0.152294,0.251431,-0.024677,2.498665,-157.464728,63.056448,-43.756408,
236,-0.244954,0.215596,-0.152294,0.310486,0.046154,3.025698,-132.602059,64.18943,-35.007267,
237,-0.240367,0.223853,-0.152294,0.333734,0.069853,3.47775,-92.947676,55.062628,-23.425669,
238,-0.240367,0.223853,-0.152294,0.322778,0.06719,3.762245,-50.020232,36.242532,-13.669432,
239,-0.240367,0.223853,-0.152294,0.276015,0.076776,3.843723,-7.596337,10.750428,-5.675612,
240,-0.23578,0.23211,-0.155963,0.181688,0.078906,3.739778,30.169742,-15.434053,0.807565,
241,-0.23578,0.23211,-0.155963,0.092971,0.060267,3.394919,60.760267,-36.583058,6.409534,
242,-0.23578,0.23211,-0.155963,0.0096,0.006478,2.96777,81.216893,-46.087521,10.500859,
243,-0.233028,0.23578,-0.156881,-0.049722,-0.069146,2.611813,96.952759,-45.961634,10.626746,
244,-0.233028,0.23578,-0.156881,-0.093012,-0.161012,2.280218,107.716092,-46.276351,7.542516,
245,-0.23578,0.230275,-0.152294,-0.089538,-0.241163,1.962699,112.940399,-47.912882,5.213608,
246,-0.23578,0.230275,-0.152294,-0.078582,-0.33516,1.690656,112.373908,-49.612355,3.640021,
247,-0.23578,0.230275,-0.152294,-0.055601,-0.418772,1.432147,110.107943,-50.493564,1.688774,
248,-0.238532,0.224771,-0.152294,-0.005899,-0.480016,1.184195,109.037904,-50.808281,0.870509,
249,-0.238532,0.224771,-0.152294,0.030443,-0.537267,0.981449,108.849074,-50.556507,0.492848,
250,-0.238532,0.224771,-0.152294,0.071594,-0.586262,0.790883,107.590205,-49.675299,0.366961,
251,-0.244954,0.217431,-0.150459,0.093506,-0.617417,0.635778,104.128314,-48.227599,0.429904,
252,-0.244954,0.217431,-0.150459,0.092971,-0.629134,0.508283,98.400459,-46.402238,-0.640135,
253,-0.252294,0.209174,-0.147706,0.088963,-0.615553,0.400548,91.791395,-45.080426,-1.4584,
254,-0.252294,0.209174,-0.147706,0.070792,-0.610494,0.264662,82.97931,-42.877404,-0.766021,
255,-0.252294,0.209174,-0.147706,0.054225,-0.603038,0.168567,72.908355,-38.597249,0.366961,
256,-0.253211,0.199083,-0.143119,0.026167,-0.571084,0.075179,63.970383,-33.876489,0.996396,
257,-0.253211,0.199083,-0.143119,0.008264,-0.554309,-0.008464,57.73898,-27.519199,2.569982,
258,-0.253211,0.199083,-0.143119,-0.014984,-0.537,-0.076678,53.773542,-21.098965,3.765908,
259,-0.258716,0.198165,-0.143119,-0.029948,-0.539663,-0.168441,52.074068,-14.175184,5.717155,
260,-0.258716,0.198165,-0.143119,-0.046783,-0.537533,-0.245859,51.759351,-7.125516,7.98312,
261,-0.258716,0.188991,-0.13945,-0.079918,-0.533805,-0.32084,50.815199,-0.201735,9.682594,
262,-0.258716,0.188991,-0.13945,-0.11332,-0.524219,-0.376061,51.004029,7.288538,12.011502,
263,-0.258716,0.188991,-0.13945,-0.143783,-0.5141,-0.438861,53.081164,13.205223,13.962749,
264,-0.262385,0.189908,-0.13578,-0.153937,-0.512503,-0.498954,51.570521,17.233605,13.710976,
265,-0.262385,0.189908,-0.13578,-0.184133,-0.525018,-0.5447,44.520853,22.017308,12.829767,
266,-0.262385,0.189908,-0.13578,-0.212725,-0.531409,-0.593154,34.953446,26.108634,11.382067,
267,-0.262385,0.187156,-0.137615,-0.230896,-0.536734,-0.656495,25.826643,29.004033,9.934368,
268,-0.262385,0.187156,-0.137615,-0.24105,-0.525284,-0.68979,20.350562,33.347132,7.479572,
269,-0.258716,0.186239,-0.13945,-0.246929,-0.523154,-0.726875,13.867385,37.501401,4.71006,
270,-0.258716,0.186239,-0.13945,-0.235706,-0.559102,-0.73283,1.78224,41.215065,1.877604,
271,-0.258716,0.186239,-0.13945,-0.210587,-0.609695,-0.661368,-18.233782,45.872882,-1.332513,
272,-0.256881,0.184404,-0.13945,-0.195623,-0.644311,-0.564461,-39.634561,48.642394,-4.73146,
273,-0.256881,0.184404,-0.13945,-0.167832,-0.646708,-0.458621,-62.231265,48.579451,-8.319237,
274,-0.256881,0.184404,-0.13945,-0.156876,-0.642181,-0.346826,-83.128495,47.572355,-11.969958,
275,-0.255963,0.181651,-0.142202,-0.145921,-0.638187,-0.261829,-101.948591,46.628203,-14.36181,
276,-0.255963,0.181651,-0.142202,-0.12481,-0.618749,-0.139748,-119.572762,48.138847,-18.264305,
277,-0.249541,0.185321,-0.145872,-0.094615,-0.547385,0.077074,-132.098511,55.377345,-23.110952,
278,-0.249541,0.185321,-0.145872,-0.06148,-0.44966,0.33044,-137.448706,63.497052,-28.461146,
279,-0.249541,0.185321,-0.145872,-0.002158,-0.35593,0.670156,-141.414144,69.287851,-32.552471,
280,-0.244954,0.195413,-0.150459,0.090299,-0.267258,1.105154,-143.050674,76.337519,-35.196097,
281,-0.244954,0.195413,-0.150459,0.20734,-0.213736,1.590501,-142.106522,81.687714,-33.874284,
282,-0.244954,0.195413,-0.150459,0.35431,-0.15835,2.128361,-137.008101,83.638961,-28.209372,
283,-0.237615,0.200917,-0.154128,0.472687,-0.126929,2.683817,-125.17473,81.184166,-19.397287,
284,-0.237615,0.200917,-0.154128,0.543767,-0.125331,3.201376,-104.65516,70.043172,-10.836976,
285,-0.23211,0.211927,-0.155963,0.580375,-0.092578,3.646931,-80.421926,52.607833,-2.402552,
286,-0.23211,0.211927,-0.155963,0.560334,-0.059826,3.930343,-56.818127,27.745164,5.843042,
287,-0.23211,0.211927,-0.155963,0.455852,-0.022813,3.993143,-26.73115,-4.607777,14.592184,
288,-0.226606,0.220183,-0.16055,0.297125,0.020857,3.835602,3.544657,-43.758613,22.460117,
289,-0.226606,0.220183,-0.16055,0.110875,0.098078,3.449057,27.40023,-74.286193,28.062086,
290,-0.226606,0.220183,-0.16055,-0.046783,0.128168,3.051143,47.668026,-81.776466,29.761559,
291,-0.223853,0.220183,-0.161468,-0.199631,0.077309,2.663244,70.138843,-81.461749,27.747368,
292,-0.223853,0.220183,-0.161468,-0.259755,-0.022014,2.296189,89.021883,-85.616017,25.481404,
293,-0.22844,0.221101,-0.159633,-0.291821,-0.156219,1.938608,99.848159,-82.594731,20.634757,
294,-0.22844,0.221101,-0.159633,-0.266703,-0.279774,1.627044,100.981141,-73.782646,15.095732,
295,-0.22844,0.221101,-0.159633,-0.204174,-0.398002,1.345527,100.225819,-65.851769,11.319124,
296,-0.234862,0.216514,-0.155963,-0.14218,-0.489869,1.092161,100.41465,-60.690405,8.864329,
297,-0.234862,0.216514,-0.155963,-0.072703,-0.576144,0.889414,100.729367,-55.906702,7.101912,
298,-0.234862,0.216514,-0.155963,-0.005899,-0.641382,0.727542,98.400459,-52.06715,5.717155,
299,-0.244037,0.212844,-0.149541,0.031244,-0.69597,0.615476,92.60966,-49.675299,5.024777,
300,-0.244037,0.212844,-0.149541,0.061707,-0.718071,0.509366,84.552896,-47.409334,4.332399,
301,-0.250459,0.20367,-0.146789,0.056897,-0.721267,0.433031,74.796659,-48.479373,4.458286,
302,-0.250459,0.20367,-0.146789,0.040597,-0.697568,0.307431,64.536875,-50.745337,6.34659,
303,-0.250459,0.20367,-0.146789,0.008264,-0.664283,0.187516,56.228337,-52.193037,8.549611,
304,-0.253211,0.19633,-0.144037,-0.041973,-0.626204,0.050005,50.752256,-52.193037,10.123198,
305,-0.253211,0.19633,-0.144037,-0.092744,-0.581469,-0.090483,47.479195,-48.164655,10.87852,
306,-0.253211,0.19633,-0.144037,-0.145921,-0.548184,-0.207962,46.849761,-41.240874,10.437915,
307,-0.257798,0.192661,-0.142202,-0.186003,-0.540995,-0.347909,47.9198,-33.939432,9.116103,
308,-0.257798,0.192661,-0.142202,-0.209518,-0.535669,-0.451312,46.409156,-24.749686,8.486668,
309,-0.26055,0.190826,-0.13578,-0.244791,-0.515698,-0.520068,42.947266,-12.853371,5.276551,
310,-0.26055,0.190826,-0.13578,-0.26697,-0.494662,-0.579349,39.800093,-1.901208,1.940548,
311,-0.26055,0.190826,-0.13578,-0.27846,-0.494662,-0.614268,33.253972,6.407329,-1.395456,
312,-0.26422,0.188991,-0.136697,-0.299838,-0.485875,-0.67003,21.861205,12.764619,-4.102025,
313,-0.26422,0.188991,-0.136697,-0.308121,-0.505313,-0.729852,9.901947,17.359492,-6.430933,
314,-0.26422,0.188991,-0.136697,-0.317741,-0.533006,-0.809164,-1.364934,22.206139,-8.571011,
315,-0.26422,0.185321,-0.136697,-0.31213,-0.548451,-0.869257,-12.820644,29.822298,-9.892824,
316,-0.26422,0.185321,-0.136697,-0.293959,-0.581203,-0.902281,-21.82156,37.879062,-12.095845,
317,-0.263303,0.186239,-0.134862,-0.293692,-0.584665,-0.898492,-29.752437,46.439373,-15.431849,
318,-0.263303,0.186239,-0.134862,-0.24773,-0.578806,-0.823511,-38.627465,55.503232,-19.523174,
319,-0.263303,0.186239,-0.134862,-0.188675,-0.585464,-0.639442,-49.201967,64.315317,-23.677443,
320,-0.262385,0.188073,-0.13945,-0.160885,-0.619015,-0.443192,-61.853604,67.021886,-24.810425,
321,-0.262385,0.188073,-0.13945,-0.143248,-0.632063,-0.268055,-78.596566,62.678787,-27.139333,
322,-0.262385,0.188073,-0.13945,-0.092477,-0.629134,-0.116469,-98.10904,57.958027,-31.734206,
323,-0.255046,0.187156,-0.141284,-0.025138,-0.599843,0.07166,-118.502723,54.37025,-36.140249,
324,-0.255046,0.187156,-0.141284,0.036589,-0.586529,0.312845,-135.371571,52.607833,-39.287422,
325,-0.247706,0.189908,-0.144037,0.098049,-0.537533,0.589761,-147.267886,52.356059,-40.168631,
326,-0.247706,0.189908,-0.144037,0.156836,-0.465904,0.925957,-151.422155,54.244363,-41.049839,
327,-0.247706,0.189908,-0.144037,0.234329,-0.381226,1.322789,-151.736872,57.076819,-41.868104,
328,-0.243119,0.200917,-0.148624,0.316632,-0.26859,1.792977,-149.15619,62.175239,-39.539196,
329,-0.243119,0.200917,-0.148624,0.385574,-0.153823,2.310806,-140.847653,66.581282,-34.818436,
330,-0.243119,0.200917,-0.148624,0.414166,-0.021481,2.840817,-122.342274,66.518338,-29.971789,
331,-0.240367,0.207339,-0.153211,0.400538,0.113789,3.339698,-92.758845,60.475766,-25.25103,
332,-0.240367,0.207339,-0.153211,0.405615,0.179028,3.712167,-59.335865,43.732804,-19.900835,
333,-0.23578,0.214679,-0.157798,0.348431,0.212046,3.934133,-28.430624,21.387874,-14.298867,
334,-0.23578,0.214679,-0.157798,0.257043,0.220035,3.970405,-1.30199,-4.670721,-11.27758,
335,-0.23578,0.214679,-0.157798,0.145079,0.231485,3.781464,20.224675,-30.288711,-10.522259,
336,-0.22844,0.221101,-0.16055,0.038994,0.199265,3.408995,34.135181,-46.905786,-8.130407,
337,-0.22844,0.221101,-0.16055,-0.016588,0.085563,3.007021,50.122821,-52.633641,-8.00452,
338,-0.22844,0.221101,-0.16055,-0.045981,-0.06595,2.593677,66.488122,-60.249801,-12.158789,
339,-0.233028,0.219266,-0.157798,-0.049722,-0.204416,2.174108,74.356055,-61.31984,-13.669432,
340,-0.233028,0.219266,-0.157798,-0.04999,-0.345811,1.831956,75.237264,-56.78791,-13.291771,
341,-0.236697,0.216514,-0.16055,-0.020596,-0.454986,1.502527,81.468667,-55.466097,-11.27758,
342,-0.236697,0.216514,-0.16055,0.020556,-0.531142,1.179323,92.169056,-56.724967,-9.074559,
343,-0.236697,0.216514,-0.16055,0.067319,-0.608097,0.945176,99.848159,-54.899606,-7.123311,
344,-0.237615,0.207339,-0.154128,0.091635,-0.676265,0.777078,99.785215,-49.738242,-6.493877,
345,-0.237615,0.207339,-0.154128,0.124503,-0.713811,0.635778,92.106112,-45.332199,-5.486781,
346,-0.237615,0.207339,-0.154128,0.12771,-0.738308,0.533457,79.454476,-42.814461,-3.976138,
347,-0.246789,0.199083,-0.150459,0.126106,-0.724462,0.432219,66.362235,-41.177931,-2.780212,
348,-0.246789,0.199083,-0.150459,0.115685,-0.719136,0.325026,56.731885,-41.618535,-1.017795,
349,-0.248624,0.194495,-0.148624,0.086291,-0.697035,0.215938,50.752256,-41.996196,1.437,
350,-0.248624,0.194495,-0.148624,0.049415,-0.685052,0.093857,48.675121,-40.737326,5.276551,
351,-0.248624,0.194495,-0.148624,0.032046,-0.67307,-0.026329,50.311651,-38.093701,8.360781,
352,-0.255046,0.189908,-0.144037,0.003721,-0.651501,-0.153012,52.703503,-32.365846,10.500859,
353,-0.255046,0.189908,-0.144037,-0.040904,-0.637122,-0.260476,53.458825,-24.183195,12.389163,
354,-0.255046,0.189908,-0.144037,-0.075643,-0.620879,-0.339788,51.948181,-15.496997,14.592184,
355,-0.257798,0.188073,-0.143119,-0.111717,-0.60144,-0.396904,49.808104,-8.195555,15.158675,
356,-0.257798,0.188073,-0.143119,-0.148058,-0.575079,-0.474592,45.653835,-1.397661,14.529241,
357,-0.259633,0.183486,-0.13945,-0.168634,-0.538332,-0.541452,38.604167,6.218499,12.829767,
358,-0.259633,0.183486,-0.13945,-0.195356,-0.529545,-0.587469,28.281438,10.624541,10.312028,
359,-0.259633,0.183486,-0.13945,-0.214863,-0.539663,-0.641066,14.937424,13.960545,8.234894,
360,-0.259633,0.181651,-0.138532,-0.230628,-0.514633,-0.695745,-1.490821,16.981831,6.220703,
361,-0.259633,0.181651,-0.138532,-0.247196,-0.497325,-0.700347,-14.394231,23.213234,1.059339,
362,-0.259633,0.181651,-0.138532,-0.253342,-0.519692,-0.728228,-24.276355,28.689316,-4.102025,
363,-0.259633,0.179817,-0.141284,-0.264832,-0.543391,-0.740409,-37.746257,32.591811,-8.319237,
364,-0.259633,0.179817,-0.141284,-0.248532,-0.540995,-0.695474,-52.663858,39.326761,-10.711089,
365,-0.255046,0.181651,-0.140367,-0.215664,-0.542859,-0.625366,-62.671869,47.194695,-14.17298,
366,-0.255046,0.181651,-0.140367,-0.180926,-0.55564,-0.507886,-71.609841,51.537794,-18.767853,
367,-0.255046,0.181651,-0.140367,-0.142981,-0.551646,-0.359548,-82.373174,56.00678,-21.915026,
368,-0.254128,0.182569,-0.144037,-0.070298,-0.517029,-0.163298,-96.220736,58.461575,-23.866273,
369,-0.254128,0.182569,-0.144037,-0.021932,-0.495194,0.075721,-106.669351,60.161048,-23.677443,
370,-0.254128,0.182569,-0.144037,0.058233,-0.456317,0.339373,-112.774867,61.294031,-25.43986,
371,-0.249541,0.188073,-0.146789,0.147217,-0.425695,0.66393,-117.306797,61.797579,-25.691634,
372,-0.249541,0.188073,-0.146789,0.226847,-0.406523,1.006082,-121.524009,60.098105,-23.173895,
373,-0.244037,0.194495,-0.151376,0.315563,-0.362853,1.391544,-124.922956,59.153953,-20.341439,
374,-0.244037,0.194495,-0.151376,0.413632,-0.263264,1.852799,-122.719935,56.762101,-19.900835,
375,-0.244037,0.194495,-0.151376,0.498072,-0.18551,2.315949,-115.418493,51.28602,-18.201361,
376,-0.240367,0.20367,-0.155963,0.537888,-0.111484,2.782077,-107.172899,45.054617,-13.291771,
377,-0.240367,0.20367,-0.155963,0.517045,-0.037725,3.217346,-94.017715,37.501401,-8.19335,
378,-0.240367,0.20367,-0.155963,0.45799,0.032041,3.525933,-73.372258,21.891422,-5.738555,
379,-0.23211,0.209174,-0.157798,0.33988,0.107398,3.674,-52.726801,-1.145887,-3.346704,
380,-0.23211,0.209174,-0.157798,0.203599,0.162252,3.665067,-33.969649,-22.924326,-1.017795,
381,-0.229358,0.215596,-0.16055,0.064379,0.215508,3.427131,-14.646005,-41.492648,1.374056,
382,-0.229358,0.215596,-0.16055,-0.040637,0.224562,3.064948,5.370017,-50.556507,3.640021,
383,-0.229358,0.215596,-0.16055,-0.131224,0.137754,2.712239,28.092608,-46.150464,4.647117,
384,-0.230275,0.218349,-0.157798,-0.164091,-0.035594,2.373606,52.955277,-42.562687,2.381152,
385,-0.230275,0.218349,-0.157798,-0.161152,-0.187108,2.076118,72.153034,-43.255065,0.933452,
386,-0.230275,0.218349,-0.157798,-0.122138,-0.312792,1.806241,84.80467,-42.499743,1.059339,
387,-0.23578,0.217431,-0.158716,-0.064687,-0.425163,1.536092,93.805586,-42.373857,1.311113,
388,-0.23578,0.217431,-0.158716,-0.014183,-0.52555,1.273523,99.281667,-43.8845,3.136473,
389,-0.238532,0.211009,-0.153211,0.053156,-0.612624,1.046144,101.044084,-43.821556,5.968929,
390,-0.238532,0.211009,-0.153211,0.081748,-0.658957,0.849081,98.463402,-42.814461,8.738442,
391,-0.238532,0.211009,-0.153211,0.096178,-0.690112,0.679359,94.372077,-41.240874,11.319124,
392,-0.242202,0.207339,-0.152294,0.091101,-0.692508,0.548345,89.021883,-41.744422,12.955654,
393,-0.242202,0.207339,-0.152294,0.073465,-0.685851,0.398112,81.153949,-42.185026,14.781014,
394,-0.242202,0.207339,-0.152294,0.0422,-0.668809,0.262497,71.523599,-41.177931,16.732262,
395,-0.246789,0.199083,-0.151376,0.003454,-0.655762,0.144747,62.019136,-39.16374,18.494679,
396,-0.246789,0.199083,-0.151376,-0.032353,-0.638986,0.009402,57.298376,-36.142454,20.634757,
397,-0.253211,0.195413,-0.146789,-0.058273,-0.609695,-0.109702,57.046602,-31.610524,22.648948,
398,-0.253211,0.195413,-0.146789,-0.078849,-0.576676,-0.225828,59.564341,-24.875573,23.5931,
399,-0.253211,0.195413,-0.146789,-0.106372,-0.582268,-0.311636,60.382606,-16.567036,22.586004,
400,-0.254128,0.189908,-0.144954,-0.14405,-0.568422,-0.379309,56.731885,-7.880838,21.327135,
401,-0.254128,0.189908,-0.144954,-0.175314,-0.533539,-0.408543,50.815199,0.931248,18.87234,
402,-0.254128,0.189908,-0.144954,-0.199898,-0.520757,-0.458892,42.632549,7.288538,14.843958,
403,-0.256881,0.188073,-0.144037,-0.232499,-0.517029,-0.494623,29.162647,11.191032,10.752633,
404,-0.256881,0.188073,-0.144037,-0.261893,-0.53487,-0.539016,14.182102,13.960545,7.605459,
405,-0.254128,0.186239,-0.141284,-0.263229,-0.540728,-0.620764,0.33454,17.485379,5.465382,
406,-0.254128,0.186239,-0.141284,-0.25548,-0.543125,-0.659743,-9.799358,23.213234,1.62583,
407,-0.254128,0.186239,-0.141284,-0.223146,-0.537267,-0.630509,-15.338383,31.395885,-2.213721,
408,-0.253211,0.187156,-0.141284,-0.19589,-0.588925,-0.562566,-19.240878,36.431362,-4.416742,
409,-0.253211,0.187156,-0.141284,-0.163022,-0.639252,-0.476216,-28.682398,36.368419,-5.486781,
410,-0.253211,0.187156,-0.141284,-0.120802,-0.659223,-0.402047,-44.229434,35.67604,-6.997425,
411,-0.254128,0.187156,-0.142202,-0.056136,-0.678662,-0.291335,-65.630212,33.787736,-9.011615,
412,-0.254128,0.187156,-0.142202,-0.010174,-0.705023,-0.162486,-88.415746,31.899433,-8.822785,
413,-0.253211,0.189908,-0.146789,0.049148,-0.678662,0.009672,-106.165803,30.703507,-9.766937,
414,-0.253211,0.189908,-0.146789,0.10366,-0.586529,0.276573,-114.474341,33.598906,-12.410563,
415,-0.253211,0.189908,-0.146789,0.146148,-0.49333,0.596528,-114.537284,40.270913,-12.91411,
416,-0.247706,0.194495,-0.149541,0.171266,-0.40892,0.93489,-111.453055,43.858691,-11.529354,
417,-0.247706,0.194495,-0.149541,0.194781,-0.303472,1.337947,-106.29169,46.75409,-10.774032,
418,-0.247706,0.194495,-0.149541,0.219098,-0.165805,1.733154,-96.094849,48.453564,-11.151693,
419,-0.243119,0.202752,-0.151376,0.240475,-0.023878,2.156784,-85.20563,47.887073,-13.354715,
420,-0.243119,0.202752,-0.151376,0.251698,0.102871,2.646462,-76.708262,43.984578,-16.564831,
421,-0.240367,0.209174,-0.154128,0.243682,0.190744,3.088227,-69.78448,34.857775,-19.586118,
422,-0.240367,0.209174,-0.154128,0.213486,0.226426,3.420635,-61.853604,20.380778,-21.474422,
423,-0.240367,0.209174,-0.154128,0.218563,0.220567,3.576552,-52.726801,0.931248,-20.026722,
424,-0.234862,0.213761,-0.156881,0.196652,0.177696,3.584131,-38.123917,-18.392396,-15.368905,
425,-0.234862,0.213761,-0.156881,0.173137,0.089824,3.346736,-16.471365,-39.100796,-10.899919,
426,-0.234862,0.213761,-0.156881,0.138933,-0.044648,2.975891,7.195378,-52.06715,-6.997425,
427,-0.234862,0.217431,-0.16055,0.06625,-0.16048,2.61831,32.624538,-60.564518,-5.486781,
428,-0.234862,0.217431,-0.16055,0.002652,-0.242494,2.266413,51.129916,-69.31366,-5.360894,
429,-0.237615,0.218349,-0.157798,-0.036896,-0.314923,1.925344,62.522684,-66.481204,-3.28376,
430,-0.237615,0.218349,-0.157798,-0.064152,-0.380428,1.597539,70.957108,-63.585804,0.429904,
431,-0.237615,0.218349,-0.157798,-0.0711,-0.433684,1.298156,78.44738,-61.50867,5.024777,
432,-0.241284,0.213761,-0.154128,-0.073772,-0.48694,1.044249,84.552896,-58.23561,6.787194,
433,-0.241284,0.213761,-0.154128,-0.06148,-0.529012,0.835006,86.755918,-53.200133,7.038968,
434,-0.241284,0.213761,-0.154128,-0.039034,-0.554841,0.701826,87.007692,-47.031673,6.724251,
435,-0.247706,0.207339,-0.151376,-0.002692,-0.580138,0.600859,84.80467,-42.373857,6.031873,
436,-0.247706,0.207339,-0.151376,0.018151,-0.598245,0.485274,81.279836,-39.604344,6.031873,
437,-0.252294,0.201835,-0.144037,0.026969,-0.61795,0.382683,78.25855,-37.212492,7.038968,
438,-0.252294,0.201835,-0.144037,0.035787,-0.636323,0.264392,73.852507,-35.198302,7.731346,
439,-0.252294,0.201835,-0.144037,0.013608,-0.62434,0.15395,67.684048,-33.372941,7.605459,
440,-0.256881,0.197248,-0.143119,-0.006968,-0.597712,0.037012,61.326758,-29.596333,7.542516,
441,-0.256881,0.197248,-0.143119,-0.044111,-0.57641,-0.060166,53.962372,-24.875573,7.101912,
442,-0.256881,0.197248,-0.143119,-0.088736,-0.554309,-0.145433,46.975648,-19.588322,7.038968,
443,-0.258716,0.192661,-0.141284,-0.118397,-0.535403,-0.249919,40.177753,-14.993449,7.227799,
444,-0.258716,0.192661,-0.141284,-0.144317,-0.531409,-0.364692,32.624538,-9.769142,7.101912,
445,-0.262385,0.189908,-0.13945,-0.182529,-0.541794,-0.465388,23.497735,-3.223021,6.850138,
446,-0.262385,0.189908,-0.13945,-0.201502,-0.550847,-0.551468,13.426781,3.952534,5.843042,
447,-0.262385,0.189908,-0.13945,-0.208984,-0.568422,-0.607771,3.859374,10.624541,3.577078,
448,-0.262385,0.187156,-0.137615,-0.225551,-0.590789,-0.682211,-5.330372,17.233605,1.562887,
449,-0.262385,0.187156,-0.137615,-0.24586,-0.611026,-0.740409,-13.701853,23.213234,1.311113,
450,-0.262385,0.187156,-0.137615,-0.248265,-0.618482,-0.796712,-20.18503,30.76645,2.255265,
451,-0.26055,0.188073,-0.137615,-0.25067,-0.615287,-0.847331,-21.569786,39.389705,2.507039,
452,-0.26055,0.188073,-0.137615,-0.244524,-0.59931,-0.848685,-22.639825,48.579451,-0.766021,
453,-0.262385,0.188073,-0.138532,-0.216466,-0.575345,-0.755026,-28.052963,57.958027,-5.738555,
454,-0.262385,0.188073,-0.138532,-0.187874,-0.560433,-0.610749,-36.550331,65.511243,-10.396372,
455,-0.262385,0.188073,-0.138532,-0.165962,-0.562031,-0.416393,-48.635476,66.833056,-14.047093,
456,-0.255046,0.188073,-0.142202,-0.102899,-0.579605,-0.23449,-66.700251,61.482861,-17.44604,
457,-0.255046,0.188073,-0.142202,-0.027543,-0.560433,-0.025517,-91.059372,55.503232,-22.481517,
458,-0.255046,0.188073,-0.142202,0.029374,-0.512503,0.224059,-116.866193,51.726624,-28.775864,
459,-0.250459,0.192661,-0.147706,0.101255,-0.458181,0.513426,-133.105607,49.775377,-31.923037,
460,-0.250459,0.192661,-0.147706,0.172602,-0.42676,0.806583,-139.148179,47.194695,-30.601224,
461,-0.247706,0.198165,-0.150459,0.254103,-0.386818,1.121395,-137.952253,46.879977,-26.132238,
462,-0.247706,0.198165,-0.150459,0.355379,-0.30294,1.505775,-131.783794,51.160133,-21.222648,
463,-0.247706,0.198165,-0.150459,0.431535,-0.208943,1.948353,-118.691553,57.328593,-15.872453,
464,-0.244037,0.208257,-0.154128,0.480436,-0.101366,2.474303,-99.242022,62.112296,-9.578107,
465,-0.244037,0.208257,-0.154128,0.481505,0.016064,2.974538,-72.742823,62.678787,-4.290856,
466,-0.244037,0.208257,-0.154128,0.449973,0.096481,3.437417,-46.117738,54.496137,-0.451304,
467,-0.238532,0.211009,-0.159633,0.400538,0.161187,3.788231,-25.598168,36.746079,1.311113,
468,-0.238532,0.211009,-0.159633,0.318503,0.186217,3.966887,-10.995284,14.715866,4.017682,
469,-0.230275,0.219266,-0.162385,0.210547,0.166779,3.924659,0.586314,-9.957972,9.43082,
470,-0.230275,0.219266,-0.162385,0.10847,0.131097,3.60714,11.664364,-32.491733,13.836862,
471,-0.230275,0.219266,-0.162385,0.036856,0.063995,3.194609,25.197209,-46.96873,14.529241,
472,-0.231193,0.220183,-0.162385,-0.032621,-0.052104,2.757986,43.828474,-53.70368,9.808481,
473,-0.231193,0.220183,-0.162385,-0.080452,-0.18551,2.403653,55.158298,-58.739158,6.787194,
474,-0.231193,0.220183,-0.162385,-0.076711,-0.315988,2.082615,65.229253,-57.417345,6.15776,
475,-0.23211,0.217431,-0.16055,-0.049188,-0.420636,1.761577,74.104281,-58.487384,7.038968,
476,-0.23211,0.217431,-0.16055,-0.02113,-0.493064,1.464359,83.294027,-60.690405,8.109007,
477,-0.236697,0.217431,-0.157798,0.001049,-0.533273,1.22913,90.406639,-59.746253,8.423724,
478,-0.236697,0.217431,-0.157798,0.028572,-0.56496,1.018533,93.679699,-58.109723,8.990216,
479,-0.236697,0.217431,-0.157798,0.051018,-0.586529,0.855037,93.176151,-57.417345,9.745537,
480,-0.238532,0.209174,-0.155046,0.056095,-0.585996,0.67178,87.070635,-56.850854,10.186141,
481,-0.238532,0.209174,-0.155046,0.059569,-0.573747,0.541849,78.636211,-53.955454,10.87852,
482,-0.238532,0.209174,-0.155046,0.059569,-0.565226,0.395135,71.775373,-50.997111,11.130293,
483,-0.247706,0.204587,-0.151376,0.052889,-0.535136,0.27955,68.691143,-47.472277,11.382067,
484,-0.247706,0.204587,-0.151376,0.024831,-0.5141,0.152326,67.432274,-42.814461,11.822672,
485,-0.254128,0.198165,-0.148624,-0.013381,-0.482147,0.056502,66.362235,-36.646001,12.955654,
486,-0.254128,0.198165,-0.148624,-0.043576,-0.463773,-0.065579,65.795744,-30.540485,13.836862,
487,-0.254128,0.198165,-0.148624,-0.084995,-0.428092,-0.162757,67.117557,-22.609608,13.396258,
488,-0.256881,0.194495,-0.144954,-0.120001,-0.421435,-0.244505,67.621104,-14.552845,12.766824,
489,-0.256881,0.194495,-0.144954,-0.150196,-0.429956,-0.341142,63.718609,-7.062573,11.382067,
490,-0.256881,0.194495,-0.144954,-0.179056,-0.456584,-0.417747,55.095355,-1.145887,10.060255,
491,-0.259633,0.188073,-0.141284,-0.209518,-0.470963,-0.54064,45.905609,1.371852,7.857233,
492,-0.259633,0.188073,-0.141284,-0.224215,-0.49333,-0.6546,35.079333,4.204308,5.654212,
493,-0.262385,0.185321,-0.140367,-0.241852,-0.529012,-0.723356,21.23177,9.86922,2.255265,
494,-0.262385,0.185321,-0.140367,-0.250402,-0.554042,-0.804021,8.32836,18.555418,-1.584287,
495,-0.262385,0.185321,-0.140367,-0.257885,-0.563096,-0.845707,-2.93852,26.486294,-4.542629,
496,-0.259633,0.183486,-0.140367,-0.275788,-0.570552,-0.856264,-13.009475,33.724793,-7.81569,
497,-0.259633,0.183486,-0.140367,-0.261358,-0.578274,-0.853828,-22.702768,41.026235,-13.228828,
498,-0.259633,0.183486,-0.140367,-0.215397,-0.591588,-0.78778,-36.550331,48.075903,-17.508983,
499,-0.26055,0.186239,-0.140367,-0.192951,-0.624873,-0.660826,-51.97148,54.37025,-19.334344,
500,-0.26055,0.186239,-0.140367,-0.148326,-0.623275,-0.498412,-64.308399,57.076819,-22.481517,
501,-0.254128,0.184404,-0.144954,-0.118397,-0.623009,-0.349804,-75.575279,55.943836,-25.817521,
502,-0.254128,0.184404,-0.144954,-0.084728,-0.594783,-0.202007,-90.492881,53.614928,-28.964694,
503,-0.254128,0.184404,-0.144954,-0.049455,-0.566558,0.021041,-107.298786,53.489041,-31.923037,
504,-0.251376,0.190826,-0.148624,0.021892,-0.517296,0.274136,-121.524009,53.174324,-33.685454,
505,-0.251376,0.190826,-0.148624,0.126106,-0.457649,0.600047,-131.72085,54.307306,-32.678358,
506,-0.251376,0.190826,-0.148624,0.218831,-0.448862,0.955463,-136.315723,55.566175,-26.384012,
507,-0.244954,0.193578,-0.151376,0.293117,-0.43182,1.325766,-132.539115,56.573271,-17.823701,
508,-0.244954,0.193578,-0.151376,0.390384,-0.362853,1.692551,-119.320988,56.510327,-12.284676,
509,-0.240367,0.2,-0.155046,0.456654,-0.241429,2.082615,-99.367909,55.062628,-10.018711,
510,-0.240367,0.2,-0.155046,0.463869,-0.10323,2.510034,-79.855435,52.544889,-8.067463,
511,-0.240367,0.2,-0.155046,0.413632,0.028047,2.902534,-65.567268,46.942921,-6.745651,
512,-0.23578,0.207339,-0.156881,0.322778,0.128434,3.264988,-53.859784,37.942005,-4.857347,
513,-0.23578,0.207339,-0.156881,0.22658,0.211514,3.482893,-40.641656,23.402065,-4.416742,
514,-0.23578,0.207339,-0.156881,0.161112,0.278084,3.527557,-24.716959,5.33729,-4.542629,
515,-0.233028,0.215596,-0.16055,0.11809,0.291132,3.465028,-6.589241,-11.657445,-4.73146,
516,-0.233028,0.215596,-0.16055,0.08255,0.193673,3.279334,8.768964,-22.987269,-1.961947,
517,-0.226606,0.217431,-0.162385,0.07293,0.008076,2.988072,21.924148,-28.337464,0.492848,
518,-0.226606,0.217431,-0.162385,0.076938,-0.191368,2.693291,36.212315,-36.26834,-0.0107,
519,-0.226606,0.217431,-0.162385,0.067051,-0.288561,2.340312,48.045687,-47.912882,-1.961947,
520,-0.22844,0.216514,-0.163303,0.050751,-0.36738,2.036868,55.095355,-53.451906,-0.891908,
521,-0.22844,0.216514,-0.163303,0.070525,-0.446199,1.760494,66.173405,-56.095532,1.751717,
522,-0.22844,0.216514,-0.163303,0.074801,-0.507177,1.469773,77.188511,-62.893426,4.332399,
523,-0.23578,0.211927,-0.16055,0.079611,-0.544989,1.22128,84.112292,-65.788826,6.220703,
524,-0.23578,0.211927,-0.16055,0.08442,-0.559102,1.006623,85.811766,-64.970561,6.15776,
525,-0.23945,0.205505,-0.156881,0.095109,-0.577475,0.794944,82.727536,-63.208144,7.416629,
526,-0.23945,0.205505,-0.156881,0.102324,-0.588925,0.597881,75.551981,-58.550327,9.116103,
527,-0.23945,0.205505,-0.156881,0.104729,-0.604103,0.46389,66.802839,-52.130094,11.25618,
528,-0.244954,0.201835,-0.152294,0.081748,-0.593452,0.374021,62.396797,-46.150464,13.585089,
529,-0.244954,0.201835,-0.152294,0.081481,-0.570019,0.267369,61.515588,-40.9891,15.851053,
530,-0.244954,0.201835,-0.152294,0.059035,-0.550847,0.162071,61.137927,-35.575962,18.87234,
531,-0.252294,0.199083,-0.152294,0.034985,-0.524219,0.074097,60.004945,-29.155729,21.390078,
532,-0.252294,0.199083,-0.152294,-0.008037,-0.508242,0.00074,61.01204,-20.721304,24.222534,
533,-0.255963,0.194495,-0.145872,-0.052662,-0.487739,-0.079385,64.914535,-16.063488,25.41846,
534,-0.255963,0.194495,-0.145872,-0.101028,-0.472561,-0.157072,66.676952,-12.853371,25.292573,
535,-0.255963,0.194495,-0.145872,-0.146455,-0.471229,-0.271574,61.893249,-9.580311,23.718987,
536,-0.255963,0.193578,-0.145872,-0.166229,-0.483212,-0.392302,50.815199,-6.370194,21.830683,
537,-0.255963,0.193578,-0.145872,-0.191882,-0.50265,-0.491374,38.100619,-1.460604,21.012418,
538,-0.255963,0.193578,-0.145872,-0.20551,-0.510106,-0.58774,26.015474,3.637817,18.117018,
539,-0.255963,0.189908,-0.143119,-0.22956,-0.517296,-0.664074,19.532297,9.302728,14.403354,
540,-0.255963,0.189908,-0.143119,-0.269108,-0.541261,-0.726604,14.245046,16.037679,11.507954,
541,-0.255046,0.189908,-0.143119,-0.284873,-0.558303,-0.809706,5.810621,21.828478,9.61965,
542,-0.255046,0.189908,-0.143119,-0.316405,-0.545255,-0.856806,-4.323277,27.68222,6.850138,
543,-0.255046,0.189908,-0.143119,-0.324956,-0.505846,-0.869257,-14.646005,35.109549,1.499943,
544,-0.255963,0.188073,-0.144037,-0.31213,-0.493863,-0.816202,-27.234698,43.2922,-4.479686,
545,-0.255963,0.188073,-0.144037,-0.273383,-0.510905,-0.668676,-42.089356,50.530698,-8.130407,
546,-0.255963,0.188073,-0.144037,-0.220741,-0.547918,-0.520609,-58.5176,52.356059,-11.025806,
547,-0.254128,0.188073,-0.146789,-0.177987,-0.572149,-0.400423,-74.568184,51.600737,-14.047093,
548,-0.254128,0.188073,-0.146789,-0.089805,-0.550314,-0.220414,-90.366994,51.789568,-17.949588,
549,-0.250459,0.188991,-0.147706,-0.00964,-0.532207,0.021853,-102.263309,54.37025,-20.656157,
550,-0.250459,0.188991,-0.147706,0.051553,-0.504781,0.325026,-107.047012,55.692062,-21.411478,
551,-0.250459,0.188991,-0.147706,0.141605,-0.461643,0.672321,-105.91403,56.825045,-19.460231,
552,-0.244954,0.197248,-0.151376,0.228718,-0.421967,1.038023,-97.668436,55.943836,-16.879549,
553,-0.244954,0.197248,-0.151376,0.321976,-0.376167,1.395063,-91.562919,51.160133,-13.543545,
554,-0.244954,0.197248,-0.151376,0.369808,-0.302674,1.77078,-90.492881,47.761186,-11.025806,
555,-0.23945,0.205505,-0.158716,0.381031,-0.211073,2.202801,-88.85635,45.935825,-10.836976,
556,-0.23945,0.205505,-0.158716,0.371946,-0.07314,2.633739,-84.198534,43.418087,-11.340524,
557,-0.23211,0.208257,-0.156881,0.360723,0.056272,3.01866,-75.449392,38.193779,-11.151693,
558,-0.23211,0.208257,-0.156881,0.323313,0.147074,3.331036,-65.063721,26.989842,-11.781128,
559,-0.23211,0.208257,-0.156881,0.27174,0.197934,3.600643,-54.803936,15.534132,-13.921206,
560,-0.22844,0.212844,-0.16422,0.234596,0.204591,3.773885,-41.459921,4.204308,-14.676527,
561,-0.22844,0.212844,-0.16422,0.185161,0.138287,3.775509,-22.576882,-12.223937,-12.158789,
562,-0.22844,0.212844,-0.16422,0.143208,0.038165,3.504278,-3.567955,-35.953623,-7.375085,
563,-0.227523,0.219266,-0.16422,0.090032,-0.088584,3.101491,14.307989,-47.34639,-4.668516,
564,-0.227523,0.219266,-0.16422,0.045407,-0.217996,2.722255,37.534128,-51.374772,-5.486781,
565,-0.229358,0.219266,-0.165138,0.019754,-0.293354,2.334898,56.354224,-61.31984,-5.235008,
566,-0.229358,0.219266,-0.165138,-0.002158,-0.382292,2.020898,70.579447,-57.983836,-4.290856,
567,-0.229358,0.219266,-0.165138,-0.00964,-0.469898,1.734778,81.153949,-56.032589,-1.961947,
568,-0.233028,0.217431,-0.162385,-0.000287,-0.540728,1.464359,86.755918,-56.976741,0.681678,
569,-0.233028,0.217431,-0.162385,0.028305,-0.567889,1.243206,86.944748,-56.913797,1.437,
570,-0.233028,0.217431,-0.162385,0.057432,-0.584931,1.033692,84.489953,-55.780815,1.877604,
571,-0.238532,0.208257,-0.153211,0.086024,-0.609961,0.863157,81.846327,-55.214323,3.514134,
572,-0.238532,0.208257,-0.153211,0.104996,-0.635258,0.698307,80.398628,-54.710776,5.213608,
573,-0.244954,0.202752,-0.152294,0.115418,-0.647241,0.534269,77.566172,-53.892511,6.724251,
574,-0.244954,0.202752,-0.152294,0.124503,-0.651235,0.420309,75.17432,-51.500659,9.053159,
575,-0.244954,0.202752,-0.152294,0.105798,-0.628335,0.298498,73.852507,-48.038768,10.941463,
576,-0.251376,0.197248,-0.148624,0.081748,-0.608097,0.211878,73.223073,-43.318009,13.522145,
577,-0.251376,0.197248,-0.148624,0.055294,-0.58067,0.102519,71.964203,-39.226683,15.410449,
578,-0.251376,0.197248,-0.148624,0.025366,-0.550581,0.013733,69.950013,-33.624715,17.802301,
579,-0.253211,0.194495,-0.147706,-0.010976,-0.535136,-0.07776,66.928726,-28.022746,19.06117,
580,-0.253211,0.194495,-0.147706,-0.043844,-0.535935,-0.167088,62.774457,-22.231948,19.942379,
581,-0.257798,0.189908,-0.144037,-0.064954,-0.539663,-0.25046,56.920715,-16.81881,21.201248,
582,-0.257798,0.189908,-0.144037,-0.102631,-0.540728,-0.351157,50.563425,-12.035106,22.774835,
583,-0.257798,0.189908,-0.144037,-0.12481,-0.550581,-0.439943,41.688397,-7.440233,22.586004,
584,-0.259633,0.188991,-0.13945,-0.168634,-0.55564,-0.487314,30.358573,-1.964152,22.33423,
585,-0.259633,0.188991,-0.13945,-0.204976,-0.551912,-0.549302,19.658184,1.8754,20.823587,
586,-0.259633,0.188991,-0.13945,-0.240783,-0.526083,-0.57989,9.020738,3.826647,19.187057,
587,-0.259633,0.183486,-0.137615,-0.276857,-0.508242,-0.627261,-1.239047,7.162651,16.354601,
588,-0.259633,0.183486,-0.137615,-0.301708,-0.501585,-0.687354,-12.19121,11.757524,13.962749,
589,-0.26055,0.182569,-0.13945,-0.339119,-0.50052,-0.736078,-24.968733,17.170662,11.822672,
590,-0.26055,0.182569,-0.13945,-0.34473,-0.480016,-0.739868,-34.53614,25.290369,9.053159,
591,-0.26055,0.182569,-0.13945,-0.355419,-0.462176,-0.721731,-39.2569,33.598906,4.89889,
592,-0.26055,0.188073,-0.13945,-0.347937,-0.42676,-0.647021,-41.08226,42.662765,-0.514248,
593,-0.26055,0.188073,-0.13945,-0.319612,-0.40173,-0.521421,-44.921812,51.663681,-8.130407,
594,-0.26055,0.188073,-0.13945,-0.274452,-0.400665,-0.351698,-51.908536,57.895084,-15.557736,
595,-0.261468,0.187156,-0.142202,-0.244524,-0.425962,-0.185495,-63.301304,58.335688,-22.54446,
596,-0.261468,0.187156,-0.142202,-0.192951,-0.460045,-0.025788,-80.107209,54.55908,-28.71292,
597,-0.250459,0.190826,-0.145872,-0.137637,-0.46617,0.147995,-101.004439,52.230172,-34.189002,
598,-0.250459,0.190826,-0.145872,-0.057739,-0.444601,0.342892,-118.502723,52.670776,-37.587949,
599,-0.250459,0.190826,-0.145872,0.021624,-0.376167,0.598423,-126.307712,55.503232,-40.546292,
600,-0.250459,0.195413,-0.148624,0.128511,-0.341284,0.948154,-124.671182,59.594557,-40.609235,
601,-0.250459,0.195413,-0.148624,0.216159,-0.344746,1.32333,-119.258044,61.419918,-34.818436,
602,-0.250459,0.195413,-0.148624,0.325183,-0.305869,1.706085,-112.334263,60.349879,-28.020542,
603,-0.241284,0.202752,-0.155963,0.429398,-0.203085,2.106706,-100.689722,58.020971,-23.362726,
604,-0.241284,0.202752,-0.155963,0.487117,-0.125863,2.538186,-84.198534,55.880893,-19.460231,
605,-0.236697,0.210092,-0.158716,0.489789,-0.080329,2.932039,-67.077911,47.950016,-13.732375,
606,-0.236697,0.210092,-0.158716,0.46761,-0.037458,3.236565,-48.257815,32.277093,-6.934481,
607,-0.236697,0.210092,-0.158716,0.401607,0.04429,3.415762,-29.248889,8.673294,-1.773117,
608,-0.23211,0.215596,-0.162385,0.283764,0.147873,3.449598,-13.387136,-12.664541,-0.954852,
609,-0.23211,0.215596,-0.162385,0.166189,0.204591,3.393566,-1.679651,-25.882669,-3.598477,
610,-0.23211,0.215596,-0.162385,0.060905,0.186217,3.247934,5.24413,-33.813545,-5.549725,
611,-0.230275,0.219266,-0.16422,-0.002158,0.089824,3.011081,10.720212,-39.037853,-7.375085,
612,-0.230275,0.219266,-0.16422,-0.033957,-0.039589,2.719277,20.413505,-43.758613,-10.270485,
613,-0.23211,0.217431,-0.159633,-0.02888,-0.164208,2.425308,32.939255,-49.486468,-15.054188,
614,-0.23211,0.217431,-0.159633,-0.039568,-0.285365,2.096961,37.722958,-55.277267,-18.327248,
615,-0.23211,0.217431,-0.159633,-0.021665,-0.390546,1.806782,42.129001,-52.318924,-18.012531,
616,-0.236697,0.216514,-0.161468,0.005859,-0.464572,1.538528,50.500482,-52.318924,-14.991245,
617,-0.236697,0.216514,-0.161468,0.033382,-0.505846,1.283268,62.27091,-54.270172,-11.969958,
618,-0.236697,0.216514,-0.161468,0.05182,-0.542859,1.066716,72.971299,-52.696585,-9.389276,
619,-0.240367,0.211927,-0.154128,0.074801,-0.566291,0.894828,78.006776,-50.304733,-8.130407,
620,-0.240367,0.211927,-0.154128,0.092971,-0.584132,0.764897,76.181416,-48.416429,-6.997425,
621,-0.243119,0.206422,-0.152294,0.106065,-0.580138,0.650124,68.565256,-46.905786,-4.605573,
622,-0.243119,0.206422,-0.152294,0.115952,-0.593452,0.524795,60.445549,-45.646917,-0.891908,
623,-0.243119,0.206422,-0.152294,0.111142,-0.600109,0.369419,55.347129,-45.70986,3.388247,
624,-0.251376,0.200917,-0.150459,0.097514,-0.596381,0.217291,53.710598,-45.080426,8.046064,
625,-0.251376,0.200917,-0.150459,0.079878,-0.590789,0.067329,54.402977,-40.107892,11.885615,
626,-0.251376,0.200917,-0.150459,0.059569,-0.572416,-0.046631,57.613093,-32.743506,15.410449,
627,-0.253211,0.198165,-0.144954,0.026167,-0.540995,-0.126755,62.27091,-24.497912,17.802301,
628,-0.253211,0.198165,-0.144954,-0.005632,-0.533539,-0.191991,64.033327,-17.19647,18.998227,
629,-0.259633,0.194495,-0.142202,-0.046249,-0.54419,-0.248566,59.37551,-11.909219,21.390078,
630,-0.259633,0.194495,-0.142202,-0.088736,-0.554309,-0.327607,47.227422,-8.699103,23.026608,
631,-0.259633,0.194495,-0.142202,-0.110915,-0.559102,-0.428574,32.372764,-5.363099,23.026608,
632,-0.256881,0.189908,-0.141284,-0.136835,-0.543125,-0.512488,18.714032,-3.097134,21.578909,
633,-0.256881,0.189908,-0.141284,-0.190279,-0.541527,-0.593695,6.314169,-0.138791,20.068266,
634,-0.256881,0.189908,-0.141284,-0.23624,-0.555108,-0.660285,-4.763881,5.33729,18.117018,
635,-0.26055,0.185321,-0.140367,-0.253609,-0.547119,-0.727957,-14.646005,12.449902,15.913997,
636,-0.26055,0.185321,-0.140367,-0.274452,-0.528213,-0.742304,-18.989104,21.576704,14.088636,
637,-0.258716,0.188073,-0.13945,-0.274452,-0.539131,-0.743387,-19.492652,29.12992,11.130293,
638,-0.258716,0.188073,-0.13945,-0.254678,-0.554841,-0.717671,-22.325108,36.746079,7.479572,
639,-0.258716,0.188073,-0.13945,-0.206312,-0.572682,-0.612914,-31.45191,44.551069,3.199417,
640,-0.258716,0.189908,-0.142202,-0.176383,-0.605168,-0.501119,-44.544151,50.908359,-0.073643,
641,-0.258716,0.189908,-0.142202,-0.157678,-0.623275,-0.363067,-58.5176,52.92255,-3.598477,
642,-0.258716,0.189908,-0.142202,-0.096753,-0.611293,-0.218248,-73.372258,53.803758,-6.55682,
643,-0.256881,0.191743,-0.144037,-0.043576,-0.565759,0.017793,-87.786312,56.00678,-8.885729,
644,-0.256881,0.191743,-0.144037,-0.016053,-0.513302,0.245714,-94.080658,59.153953,-9.578107,
645,-0.252294,0.197248,-0.148624,0.023495,-0.448862,0.473635,-95.528358,60.475766,-9.578107,
646,-0.252294,0.197248,-0.148624,0.079611,-0.360457,0.754611,-94.710093,64.818865,-10.270485,
647,-0.252294,0.197248,-0.148624,0.1392,-0.24995,1.136283,-93.073563,70.420833,-12.347619,
648,-0.245872,0.204587,-0.150459,0.194781,-0.170066,1.56668,-90.178163,75.833971,-13.732375,
649,-0.245872,0.204587,-0.150459,0.282428,-0.073406,2.059065,-82.49906,75.833971,-15.620679,
650,-0.245872,0.204587,-0.150459,0.362593,0.010472,2.553074,-70.665689,68.217812,-15.243019,
651,-0.236697,0.208257,-0.157798,0.408555,0.074379,3.007291,-59.650583,54.999684,-15.054188,
652,-0.236697,0.208257,-0.157798,0.418976,0.093552,3.368121,-53.733897,35.990758,-16.501888,
653,-0.233945,0.216514,-0.16055,0.398133,0.100741,3.614178,-52.537971,15.408245,-15.683623,
654,-0.233945,0.216514,-0.16055,0.3332,0.109529,3.698092,-49.894345,-8.82499,-13.291771,
655,-0.233945,0.216514,-0.16055,0.260784,0.105268,3.598207,-39.823391,-33.876489,-10.962863,
656,-0.231193,0.217431,-0.165138,0.167258,0.068255,3.306133,-25.031677,-53.011302,-9.515163,
657,-0.231193,0.217431,-0.165138,0.081481,-0.003374,2.961545,-8.036941,-59.809196,-9.515163,
658,-0.231193,0.217431,-0.165138,-0.022734,-0.072607,2.675155,13.04912,-57.291458,-9.766937,
659,-0.230275,0.221101,-0.16422,-0.06816,-0.147698,2.39445,36.589976,-58.361497,-9.011615,
660,-0.230275,0.221101,-0.16422,-0.095417,-0.240364,2.118075,59.501397,-58.298553,-5.927386,
661,-0.234862,0.221101,-0.159633,-0.084995,-0.313059,1.856589,79.769193,-57.039684,-3.157873,
662,-0.234862,0.221101,-0.159633,-0.058541,-0.390546,1.604847,96.008607,-54.207228,-1.961947,
663,-0.234862,0.221101,-0.159633,-0.010976,-0.455252,1.364746,105.638957,-52.06715,-0.577191,
664,-0.243119,0.220183,-0.154128,0.02777,-0.498124,1.13493,110.107943,-49.864129,0.304017,
665,-0.243119,0.220183,-0.154128,0.064112,-0.551912,0.944635,109.85617,-48.479373,1.122282,
666,-0.243119,0.220183,-0.154128,0.111409,-0.602505,0.788176,104.757749,-47.34639,1.751717,
667,-0.244954,0.207339,-0.152294,0.139467,-0.635524,0.647959,96.323324,-45.70986,1.688774,
668,-0.244954,0.207339,-0.152294,0.162982,-0.637122,0.544826,86.944748,-45.583973,1.940548,
669,-0.250459,0.202752,-0.151376,0.167258,-0.644578,0.422204,79.076815,-46.150464,2.632926,
670,-0.250459,0.202752,-0.151376,0.155767,-0.638986,0.324485,72.656582,-46.087521,4.206512,
671,-0.250459,0.202752,-0.151376,0.139734,-0.625406,0.214043,67.872878,-44.450991,5.591269,
672,-0.255963,0.194495,-0.147706,0.117823,-0.613956,0.127152,64.159214,-40.80027,7.79429,
673,-0.255963,0.194495,-0.147706,0.1066,-0.600908,0.011838,62.145023,-36.960719,9.493763,
674,-0.255963,0.194495,-0.147706,0.075335,-0.600109,-0.078843,60.82321,-31.044033,12.89271,
675,-0.257798,0.190826,-0.144037,0.035787,-0.598778,-0.1836,58.305471,-24.120252,16.417545,
676,-0.257798,0.190826,-0.144037,0.004255,-0.58067,-0.25831,57.864867,-14.238128,20.068266,
677,-0.261468,0.187156,-0.13945,-0.016855,-0.596115,-0.35224,59.564341,-3.726569,23.278382,
678,-0.261468,0.187156,-0.13945,-0.07297,-0.637654,-0.426409,60.82321,4.896686,27.684425,
679,-0.261468,0.187156,-0.13945,-0.109579,-0.666146,-0.53685,58.746076,13.14228,33.664054,
680,-0.266055,0.183486,-0.140367,-0.140576,-0.672537,-0.640524,55.158298,21.1361,39.391909,
681,-0.266055,0.183486,-0.140367,-0.184133,-0.646708,-0.72904,51.004029,28.752259,42.8538,
682,-0.266055,0.183486,-0.140367,-0.254143,-0.605701,-0.79184,46.346213,36.871966,42.727913,
683,-0.262385,0.180734,-0.137615,-0.302243,-0.566824,-0.81945,39.233601,43.984578,39.706627,
684,-0.262385,0.180734,-0.137615,-0.347402,-0.523154,-0.826759,27.58906,49.901264,34.797036,
685,-0.263303,0.177982,-0.141284,-0.384545,-0.474957,-0.812954,12.419685,54.244363,28.187973,
686,-0.263303,0.177982,-0.141284,-0.39176,-0.424364,-0.765583,-7.785167,55.125571,18.179962,
687,-0.263303,0.177982,-0.141284,-0.368512,-0.397736,-0.636464,-31.766627,57.013875,6.283647,
688,-0.255963,0.180734,-0.142202,-0.321482,-0.412115,-0.449147,-56.188692,55.062628,-6.116216,
689,-0.255963,0.180734,-0.142202,-0.262427,-0.455519,-0.299726,-85.20563,45.684051,-19.963778,
690,-0.255963,0.180734,-0.142202,-0.16329,-0.509574,-0.150847,-122.594048,36.368419,-33.24485,
691,-0.255046,0.181651,-0.147706,-0.082323,-0.536734,0.061645,-161.304279,33.598906,-41.490444,
692,-0.255046,0.181651,-0.147706,0.009867,-0.524219,0.28334,-181.383245,35.29838,-41.049839,
693,-0.247706,0.189908,-0.150459,0.107936,-0.49839,0.557278,-176.095993,41.466839,-34.629606,
694,-0.247706,0.189908,-0.150459,0.199591,-0.469898,0.903219,-151.296268,52.859606,-24.495708,
695,-0.247706,0.189908,-0.150459,0.29285,-0.449927,1.308442,-117.243853,65.259469,-11.655241,
696,-0.245872,0.197248,-0.151376,0.406417,-0.374303,1.752915,-83.632043,71.239098,-1.584287,
697,-0.245872,0.197248,-0.151376,0.472687,-0.258471,2.227705,-56.944014,70.043172,5.087721,
698,-0.245872,0.197248,-0.151376,0.507425,-0.149829,2.727127,-41.08226,62.238183,8.297838,
699,-0.23945,0.207339,-0.157798,0.455585,-0.051305,3.182698,-36.865048,50.215981,7.857233,
700,-0.23945,0.207339,-0.157798,0.400271,0.007277,3.527286,-35.543235,34.228341,6.53542,
701,-0.233945,0.211927,-0.159633,0.342285,0.060533,3.719476,-33.08844,10.309824,5.843042,
702,-0.233945,0.211927,-0.159633,0.246888,0.071717,3.691595,-27.864133,-17.133527,5.591269,
703,-0.233945,0.211927,-0.159633,0.134123,0.064793,3.496157,-21.380956,-36.394227,5.087721,
704,-0.22844,0.215596,-0.162385,0.049148,0.015798,3.187841,-11.624719,-46.654012,4.395343,
705,-0.22844,0.215596,-0.162385,-0.032621,-0.041985,2.835945,8.13953,-49.675299,2.821756,
706,-0.22844,0.215596,-0.162385,-0.094348,-0.134384,2.53981,34.386955,-52.004207,-1.017795,
707,-0.233945,0.215596,-0.161468,-0.141912,-0.198025,2.244487,56.480111,-54.584889,-3.724364,
708,-0.233945,0.215596,-0.161468,-0.153135,-0.279774,1.964323,68.439369,-57.039684,-4.290856,
709,-0.238532,0.214679,-0.158716,-0.142981,-0.349539,1.693363,75.614924,-57.669119,-4.102025,
710,-0.238532,0.214679,-0.158716,-0.122138,-0.4225,1.422944,79.202702,-55.214323,-4.794403,
711,-0.238532,0.214679,-0.158716,-0.088736,-0.478419,1.182571,80.272741,-51.689489,-5.612668,
712,-0.241284,0.211009,-0.155963,-0.05186,-0.509041,0.968726,79.391532,-48.542316,-7.060368,
713,-0.241284,0.211009,-0.155963,-0.008037,-0.543924,0.824719,75.866698,-46.528125,-7.563916,
714,-0.241284,0.211009,-0.155963,0.025098,-0.562297,0.716173,69.950013,-45.143369,-7.438029,
715,-0.247706,0.204587,-0.152294,0.04701,-0.572682,0.623597,63.403892,-44.513934,-6.305046,
716,-0.247706,0.204587,-0.152294,0.065448,-0.574546,0.535352,58.431358,-44.891595,-4.73146,
717,-0.253211,0.201835,-0.151376,0.07106,-0.554042,0.436821,56.10245,-45.52103,-2.969043,
718,-0.253211,0.201835,-0.151376,0.062509,-0.540196,0.340726,55.221242,-46.276351,0.17813,
719,-0.253211,0.201835,-0.151376,0.045407,-0.524485,0.22839,55.221242,-45.143369,3.828851,
720,-0.255963,0.193578,-0.145872,0.020021,-0.482679,0.11064,55.850676,-42.185026,7.731346,
721,-0.255963,0.193578,-0.145872,-0.016588,-0.460045,-0.000884,57.864867,-36.960719,10.437915,
722,-0.255963,0.193578,-0.145872,-0.048386,-0.444335,-0.101581,61.263814,-29.53339,13.018597,
723,-0.263303,0.188073,-0.142202,-0.087934,-0.441139,-0.171148,64.788648,-22.169004,13.018597,
724,-0.263303,0.188073,-0.142202,-0.122138,-0.453388,-0.235302,64.285101,-15.685827,11.193237,
725,-0.259633,0.187156,-0.138532,-0.152334,-0.466436,-0.320028,55.91362,-10.776237,9.43082,
726,-0.259633,0.187156,-0.138532,-0.175314,-0.500254,-0.398257,42.443718,-5.866647,8.423724,
727,-0.259633,0.187156,-0.138532,-0.198295,-0.523154,-0.500849,27.526117,0.175926,7.605459,
728,-0.26422,0.181651,-0.140367,-0.211923,-0.542592,-0.596402,15.126254,9.239785,8.738442,
729,-0.26422,0.181651,-0.140367,-0.23624,-0.53993,-0.66245,9.209568,18.366587,10.374972,
730,-0.26422,0.181651,-0.140367,-0.248799,-0.523953,-0.736078,10.342551,28.122825,10.374972,
731,-0.26422,0.178899,-0.13945,-0.253876,-0.51197,-0.739868,11.916137,37.816118,8.486668,
732,-0.26422,0.178899,-0.13945,-0.249066,-0.498656,-0.703054,8.51719,46.56526,7.101912,
733,-0.265138,0.179817,-0.138532,-0.234102,-0.508242,-0.631862,-2.309086,51.600737,4.89889,
734,-0.265138,0.179817,-0.138532,-0.206312,-0.535669,-0.555257,-20.436804,52.356059,1.374056,
735,-0.265138,0.179817,-0.138532,-0.177185,-0.552977,-0.447793,-41.522865,50.971303,-3.157873,
736,-0.261468,0.181651,-0.140367,-0.134163,-0.559102,-0.3563,-63.301304,46.313486,-8.19335,
737,-0.261468,0.181651,-0.140367,-0.102364,-0.560699,-0.243964,-84.387364,40.585631,-13.984149,
738,-0.261468,0.181651,-0.140367,-0.069497,-0.559901,-0.097791,-106.165803,37.816118,-20.593213,
739,-0.256881,0.180734,-0.144037,-0.047318,-0.53993,0.09494,-127.503638,38.57144,-26.132238,
740,-0.256881,0.180734,-0.144037,-0.046516,-0.459779,0.323402,-141.854748,42.851595,-27.957599,
741,-0.250459,0.187156,-0.147706,0.021892,-0.339953,0.598693,-138.707575,50.656585,-26.761673,
742,-0.250459,0.187156,-0.147706,0.077206,-0.269389,0.991194,-121.398122,60.979313,-22.922121,
743,-0.250459,0.187156,-0.147706,0.153897,-0.216133,1.401018,-95.906019,69.602568,-18.201361,
744,-0.248624,0.194495,-0.151376,0.254371,-0.144769,1.876891,-69.721537,73.756837,-13.291771,
745,-0.248624,0.194495,-0.151376,0.347629,-0.080862,2.341936,-47.124833,70.54672,-9.263389,
746,-0.248624,0.194495,-0.151376,0.414701,-0.06382,2.808876,-32.962553,60.412822,-6.745651,
747,-0.241284,0.2,-0.16055,0.416304,-0.061956,3.196774,-27.801189,43.669861,-6.305046,
748,-0.241284,0.2,-0.16055,0.383436,-0.059293,3.463403,-29.81538,21.828478,-7.060368,
749,-0.234862,0.205505,-0.16055,0.350569,-0.021481,3.549212,-34.221423,-3.348908,-6.242103,
750,-0.234862,0.205505,-0.16055,0.277351,0.001685,3.48181,-35.354405,-26.386216,-4.542629,
751,-0.234862,0.205505,-0.16055,0.172602,-0.006836,3.279334,-28.36768,-43.129178,-3.472591,
752,-0.233945,0.209174,-0.163303,0.077473,-0.05237,3.023262,-13.261249,-52.255981,-4.416742,
753,-0.233945,0.209174,-0.163303,-0.004563,-0.115745,2.759881,6.88066,-58.298553,-6.808594,
754,-0.233945,0.209174,-0.163303,-0.093012,-0.170066,2.480529,27.777891,-62.767539,-8.885729,
755,-0.238532,0.208257,-0.16055,-0.142981,-0.226251,2.169506,43.891418,-66.670034,-8.508068,
756,-0.238532,0.208257,-0.16055,-0.155273,-0.296549,1.868499,57.235433,-63.648748,-7.752746,
757,-0.241284,0.208257,-0.156881,-0.146722,-0.356995,1.592396,69.446465,-58.927988,-7.186255,
758,-0.241284,0.208257,-0.156881,-0.117863,-0.437678,1.348775,80.08391,-54.270172,-6.682707,
759,-0.241284,0.208257,-0.156881,-0.07297,-0.503715,1.137637,87.070635,-51.437716,-7.123311,
760,-0.244037,0.205505,-0.153211,-0.025138,-0.560433,0.949237,88.329504,-47.912882,-6.934481,
761,-0.244037,0.205505,-0.153211,0.021892,-0.602239,0.791154,85.056444,-45.898691,-6.808594,
762,-0.244037,0.205505,-0.153211,0.067051,-0.631264,0.647688,78.510324,-44.450991,-6.619764,
763,-0.249541,0.19633,-0.153211,0.085757,-0.64298,0.531833,70.831221,-43.758613,-6.745651,
764,-0.249541,0.19633,-0.153211,0.091635,-0.633394,0.421662,63.529779,-42.122083,-5.109121,
765,-0.256881,0.190826,-0.150459,0.086024,-0.615021,0.296874,58.746076,-41.114987,-3.031986,
766,-0.256881,0.190826,-0.150459,0.08255,-0.593452,0.203757,55.347129,-39.730231,-1.332513,
767,-0.256881,0.190826,-0.150459,0.059302,-0.576676,0.09521,52.955277,-36.26834,-0.577191,
768,-0.259633,0.188991,-0.144037,0.038459,-0.567889,0.015357,49.871047,-33.184111,0.492848,
769,-0.259633,0.188991,-0.144037,0.007195,-0.555374,-0.079655,45.905609,-29.407503,1.248169,
770,-0.259633,0.188991,-0.144037,-0.013915,-0.560433,-0.184141,39.674206,-24.938517,2.444095,
771,-0.26055,0.182569,-0.13945,-0.048921,-0.559368,-0.286192,30.232686,-19.714209,2.758813,
772,-0.26055,0.182569,-0.13945,-0.079116,-0.571084,-0.380933,21.23177,-11.657445,2.947643,
773,-0.265138,0.180734,-0.138532,-0.122673,-0.559901,-0.458892,13.426781,-3.978343,3.577078,
774,-0.265138,0.180734,-0.138532,-0.141912,-0.548717,-0.531707,7.006547,4.393138,3.954738,
775,-0.265138,0.180734,-0.138532,-0.172642,-0.523686,-0.543888,3.355826,14.58998,4.080625,
776,-0.266055,0.178899,-0.137615,-0.195089,-0.527414,-0.555799,1.152805,22.77263,3.07353,
777,-0.266055,0.178899,-0.137615,-0.223948,-0.548717,-0.573393,-4.071503,29.255807,2.444095,
778,-0.266055,0.178899,-0.137615,-0.242653,-0.541794,-0.580973,-11.435888,34.543058,0.807565,
779,-0.26422,0.179817,-0.140367,-0.231964,-0.527947,-0.601274,-16.219592,39.893253,-1.961947,
780,-0.26422,0.179817,-0.140367,-0.202036,-0.532207,-0.570145,-22.576882,45.180504,-7.186255,
781,-0.26422,0.178899,-0.143119,-0.182529,-0.553776,-0.467824,-35.669122,50.027151,-11.907015,
782,-0.26422,0.178899,-0.143119,-0.143248,-0.592387,-0.326254,-53.104462,51.160133,-15.99834,
783,-0.26422,0.178899,-0.143119,-0.094348,-0.582801,-0.190909,-70.099198,47.887073,-19.649061,
784,-0.262385,0.180734,-0.141284,-0.032888,-0.563629,-0.021998,-87.534538,43.795747,-23.80333,
785,-0.262385,0.180734,-0.141284,0.029107,-0.58573,0.195366,-102.326252,39.137931,-26.006351,
786,-0.262385,0.180734,-0.141284,0.065448,-0.615553,0.355614,-115.040832,32.40298,-23.614499,
787,-0.253211,0.180734,-0.144954,0.102858,-0.582268,0.511531,-123.223483,28.689316,-21.222648,
788,-0.253211,0.180734,-0.144954,0.101522,-0.522621,0.676652,-124.419408,32.151206,-18.956683,
789,-0.249541,0.190826,-0.147706,0.088696,-0.424098,0.918919,-117.495627,40.20797,-15.746566,
790,-0.249541,0.190826,-0.147706,0.096445,-0.316787,1.180406,-103.081574,49.145942,-13.228828,
791,-0.249541,0.190826,-0.147706,0.118624,-0.175924,1.503068,-86.401555,58.461575,-12.284676,
792,-0.248624,0.19633,-0.153211,0.160043,-0.042784,1.905042,-71.861615,66.770112,-13.291771,
793,-0.248624,0.19633,-0.153211,0.209478,0.052811,2.334086,-59.335865,71.364985,-14.424753,
794,-0.248624,0.19633,-0.153211,0.238338,0.078906,2.75555,-50.712611,68.973134,-17.005436,
795,-0.23945,0.20367,-0.154128,0.266395,0.078107,3.097431,-44.103547,58.272744,-19.019626,
796,-0.23945,0.20367,-0.154128,0.29285,0.058669,3.300448,-37.494483,40.145026,-20.152609,
797,-0.238532,0.207339,-0.159633,0.290178,0.03284,3.370557,-29.185945,16.41534,-20.656157,
798,-0.238532,0.207339,-0.159633,0.269869,-0.019884,3.273921,-19.177934,-5.803703,-19.145513,
799,-0.238532,0.207339,-0.159633,0.249026,-0.079531,3.102303,-7.344563,-22.294891,-16.690718,
800,-0.233945,0.209174,-0.163303,0.223641,-0.200156,2.836215,11.664364,-34.317093,-12.72528,
801,-0.233945,0.209174,-0.163303,0.162715,-0.310928,2.554156,32.876311,-48.668203,-9.892824,
802,-0.233945,0.209174,-0.163303,0.100721,-0.381759,2.244487,49.052782,-59.368592,-10.333428,
803,-0.23578,0.211009,-0.162385,0.05182,-0.392676,1.959451,53.836485,-65.285278,-8.319237,
804,-0.23578,0.211009,-0.162385,0.026702,-0.421435,1.682535,56.543054,-65.096448,-4.983234,
805,-0.240367,0.206422,-0.159633,0.002652,-0.460312,1.412387,64.09627,-66.292373,-1.710173,
806,-0.240367,0.206422,-0.159633,0.004255,-0.502118,1.163082,72.593638,-66.670034,0.304017,
807,-0.240367,0.206422,-0.159633,0.014944,-0.531675,0.970621,76.496133,-62.515765,1.122282,
808,-0.244037,0.2,-0.153211,0.036321,-0.565759,0.813892,76.559076,-56.158475,1.248169,
809,-0.244037,0.2,-0.153211,0.054759,-0.57854,0.680442,75.363151,-49.801185,2.632926,
810,-0.244037,0.2,-0.153211,0.069724,-0.578008,0.5857,72.404808,-45.772804,4.206512,
811,-0.249541,0.194495,-0.149541,0.092437,-0.591055,0.490959,72.027147,-41.240874,6.031873,
812,-0.249541,0.194495,-0.149541,0.100454,-0.605967,0.412188,71.71243,-38.156644,7.605459,
813,-0.252294,0.189908,-0.146789,0.101522,-0.600908,0.323673,70.012956,-36.457171,8.990216,
814,-0.252294,0.189908,-0.146789,0.099385,-0.59718,0.242466,66.928726,-33.435884,9.682594,
815,-0.252294,0.189908,-0.146789,0.080412,-0.582801,0.15774,61.767362,-31.295807,10.752633,
816,-0.258716,0.184404,-0.143119,0.050217,-0.570818,0.078157,55.221242,-29.281616,11.822672,
817,-0.258716,0.184404,-0.143119,0.03258,-0.565492,-0.010629,47.038591,-26.260329,12.51505,
818,-0.258716,0.184404,-0.143119,-0.002959,-0.57854,-0.095355,38.47828,-22.924326,12.829767,
819,-0.261468,0.180734,-0.143119,-0.036629,-0.575345,-0.1679,29.03676,-18.077679,12.137389,
820,-0.261468,0.180734,-0.143119,-0.082857,-0.550581,-0.224745,20.161731,-12.538654,11.759728,
821,-0.261468,0.178899,-0.13945,-0.117863,-0.532474,-0.278342,12.545572,-6.873742,10.87852,
822,-0.261468,0.178899,-0.13945,-0.16035,-0.522355,-0.347638,7.195378,-1.334717,9.871424,
823,-0.261468,0.178899,-0.13945,-0.182262,-0.552178,-0.431011,1.97107,3.826647,10.752633,
824,-0.263303,0.178899,-0.13945,-0.206846,-0.581736,-0.530624,-3.882672,10.183937,13.396258,
825,-0.263303,0.178899,-0.13945,-0.237042,-0.563096,-0.611019,-7.65928,19.436626,14.403354,
826,-0.263303,0.178899,-0.13945,-0.248265,-0.527148,-0.636193,-7.973998,29.885242,14.088636,
827,-0.26422,0.177064,-0.137615,-0.253342,-0.490135,-0.639442,-7.029846,38.823214,13.648032,
828,-0.26422,0.177064,-0.137615,-0.246929,-0.494129,-0.609937,-12.128266,45.495221,12.200332,
829,-0.263303,0.177064,-0.141284,-0.241317,-0.492265,-0.533873,-24.90579,51.789568,9.493763,
830,-0.263303,0.177064,-0.141284,-0.207915,-0.483478,-0.436695,-38.501578,56.19561,5.968929,
831,-0.263303,0.177064,-0.141284,-0.180659,-0.472827,-0.349533,-51.027328,58.209801,1.877604,
832,-0.26055,0.180734,-0.143119,-0.170237,-0.458181,-0.262371,-63.553077,58.713349,-3.157873,
833,-0.26055,0.180734,-0.143119,-0.1681,-0.445933,-0.138124,-75.638223,59.405727,-8.508068,
834,-0.26055,0.180734,-0.143119,-0.122405,-0.408653,0.025643,-89.045181,59.783388,-13.921206,
835,-0.255046,0.182569,-0.147706,-0.086866,-0.347409,0.277655,-102.326252,62.615844,-20.152609,
836,-0.255046,0.182569,-0.147706,-0.037163,-0.293886,0.552405,-111.138337,65.007695,-25.25103,
837,-0.249541,0.190826,-0.151376,0.045407,-0.245157,0.849352,-115.481436,64.818865,-28.461146,
838,-0.249541,0.190826,-0.151376,0.132787,-0.198824,1.189609,-117.936231,63.308222,-28.90175,
839,-0.249541,0.190826,-0.151376,0.227114,-0.158882,1.594561,-117.36974,61.986409,-28.775864,
840,-0.243119,0.197248,-0.155046,0.314494,-0.111484,1.983001,-114.726115,60.098105,-28.146429,
841,-0.243119,0.197248,-0.155046,0.375687,-0.068347,2.356553,-111.830715,53.614928,-27.013447,
842,-0.243119,0.197248,-0.155046,0.421648,-0.003374,2.714134,-104.025726,46.879977,-24.558651,
843,-0.236697,0.205505,-0.157798,0.431268,0.048018,3.023803,-86.149781,39.956196,-18.89374,
844,-0.236697,0.205505,-0.157798,0.429398,0.06719,3.253078,-60.405904,27.115729,-11.27758,
845,-0.23578,0.211927,-0.16055,0.383436,0.084764,3.38761,-32.018401,10.687485,-3.976138,
846,-0.23578,0.211927,-0.16055,0.298461,0.087694,3.384903,-3.442068,-4.544834,3.514134,
847,-0.23578,0.211927,-0.16055,0.195583,0.081303,3.229257,21.23177,-18.203566,8.927272,
848,-0.22844,0.215596,-0.163303,0.092971,0.053343,2.981034,43.19904,-26.700934,11.759728,
849,-0.22844,0.215596,-0.163303,0.020288,-0.011097,2.696539,60.63438,-31.106976,12.200332,
850,-0.22844,0.215596,-0.163303,-0.042775,-0.131988,2.448046,74.104281,-33.624715,10.374972,
851,-0.231193,0.214679,-0.16789,-0.053998,-0.256607,2.182499,83.294027,-35.89068,9.241989,
852,-0.231193,0.214679,-0.16789,-0.032621,-0.354865,1.904501,87.511239,-40.737326,8.297838,
853,-0.23211,0.211927,-0.162385,-0.009907,-0.436346,1.639766,89.084826,-44.199217,7.038968,
854,-0.23211,0.211927,-0.162385,0.006126,-0.513568,1.388837,88.329504,-45.395143,5.024777,
855,-0.23211,0.211927,-0.162385,0.043269,-0.568422,1.17824,84.741727,-45.52103,3.325304,
856,-0.238532,0.206422,-0.161468,0.080679,-0.609695,0.992547,77.440285,-46.779899,3.136473,
857,-0.238532,0.206422,-0.161468,0.097514,-0.64085,0.839066,69.887069,-48.227599,2.632926,
858,-0.238532,0.206422,-0.161468,0.121831,-0.654164,0.71888,62.900344,-48.164655,2.569982,
859,-0.240367,0.200917,-0.156881,0.126641,-0.646974,0.603295,59.438454,-46.591069,3.451191,
860,-0.240367,0.200917,-0.156881,0.120762,-0.635524,0.49123,57.235433,-45.395143,4.332399,
861,-0.244037,0.192661,-0.155046,0.100988,-0.616618,0.388097,54.088259,-41.681478,6.976025,
862,-0.244037,0.192661,-0.155046,0.079611,-0.579872,0.296333,52.262899,-36.520114,9.493763,
863,-0.244037,0.192661,-0.155046,0.032848,-0.544723,0.205652,53.899429,-30.603429,12.389163,
864,-0.253211,0.189908,-0.151376,0.011737,-0.521024,0.125798,57.55015,-24.938517,14.277467,
865,-0.253211,0.189908,-0.151376,-0.005097,-0.502384,0.045674,61.578532,-18.833001,16.291658,
866,-0.253211,0.189908,-0.151376,-0.017656,-0.500254,-0.024434,61.452645,-11.972163,16.354601,
867,-0.255046,0.184404,-0.146789,-0.039568,-0.501319,-0.092919,56.857772,-5.300155,15.221619,
868,-0.255046,0.184404,-0.146789,-0.068428,-0.490401,-0.137041,50.185764,-0.201735,14.15158,
869,-0.256881,0.185321,-0.147706,-0.084193,-0.505047,-0.185495,40.807188,3.071325,12.137389,
870,-0.256881,0.185321,-0.147706,-0.105838,-0.519692,-0.2464,28.659099,5.966725,10.249085,
871,-0.256881,0.185321,-0.147706,-0.113855,-0.5141,-0.275905,14.937424,9.428615,7.731346,
872,-0.257798,0.180734,-0.144037,-0.130155,-0.524219,-0.300809,2.474618,11.946354,5.339495,
873,-0.257798,0.180734,-0.144037,-0.148326,-0.535935,-0.324359,-6.841015,13.205223,4.395343,
874,-0.257798,0.180734,-0.144037,-0.171039,-0.539131,-0.406648,-15.46427,14.086432,3.325304,
875,-0.253211,0.179817,-0.149541,-0.195623,-0.526083,-0.448064,-23.772807,16.918888,2.632926,
876,-0.253211,0.179817,-0.149541,-0.208449,-0.506378,-0.459433,-29.500663,21.261987,2.318208,
877,-0.253211,0.177064,-0.146789,-0.217535,-0.481082,-0.452936,-34.221423,26.04569,0.996396,
878,-0.253211,0.177064,-0.146789,-0.212725,-0.459779,-0.398257,-39.44573,29.822298,-1.773117,
879,-0.253211,0.177064,-0.146789,-0.216466,-0.458714,-0.33275,-48.194872,32.151206,-5.486781,
880,-0.254128,0.181651,-0.148624,-0.187606,-0.464572,-0.258852,-64.119569,32.465924,-10.836976,
881,-0.254128,0.181651,-0.148624,-0.148058,-0.46617,-0.139478,-84.513251,33.473019,-15.431849,
882,-0.254128,0.181651,-0.148624,-0.123474,-0.464306,-0.039864,-100.500892,34.983662,-17.949588,
883,-0.248624,0.183486,-0.149541,-0.095149,-0.427293,0.122279,-107.172899,38.949101,-20.656157,
884,-0.248624,0.183486,-0.149541,-0.052127,-0.371907,0.322048,-104.025726,46.061712,-22.607404,
885,-0.247706,0.190826,-0.155046,-0.012045,-0.320248,0.564586,-95.087754,53.929645,-23.173895,
886,-0.247706,0.190826,-0.155046,0.03258,-0.304538,0.837712,-87.21982,59.594557,-21.600309,
887,-0.247706,0.190826,-0.155046,0.083886,-0.30507,1.148735,-85.079743,61.419918,-20.970874,
888,-0.242202,0.197248,-0.157798,0.157905,-0.262732,1.453261,-86.779216,65.007695,-23.236839,
889,-0.242202,0.197248,-0.157798,0.2362,-0.177522,1.80597,-90.178163,65.511243,-25.880464,
890,-0.242202,0.197248,-0.157798,0.308883,-0.0774,2.183041,-91.499976,62.36407,-28.587033,
891,-0.23578,0.200917,-0.157798,0.40615,0.004348,2.604234,-88.919294,58.083914,-28.775864,
892,-0.23578,0.200917,-0.157798,0.465739,-0.00151,3.022991,-79.414831,50.593642,-27.013447,
893,-0.233945,0.210092,-0.163303,0.535483,-0.043316,3.367309,-65.189608,34.920719,-20.404383,
894,-0.233945,0.210092,-0.163303,0.570488,-0.122402,3.516188,-45.928907,9.365672,-11.08875,
895,-0.233945,0.210092,-0.163303,0.515442,-0.171397,3.471254,-22.765712,-21.91723,-1.395456,
896,-0.226606,0.213761,-0.166972,0.402943,-0.17912,3.225738,2.096957,-49.108807,6.598364,
897,-0.226606,0.213761,-0.166972,0.282428,-0.152491,2.877631,29.603251,-61.50867,12.200332,
898,-0.226606,0.213761,-0.166972,0.152828,-0.157817,2.580413,56.354224,-64.089352,14.655128,
899,-0.225688,0.217431,-0.16789,0.015746,-0.186842,2.35141,80.398628,-62.012218,15.78811,
900,-0.225688,0.217431,-0.16789,-0.042508,-0.234772,2.062855,94.938568,-64.278183,17.109923,
901,-0.231193,0.212844,-0.16422,-0.088469,-0.307999,1.79027,99.344611,-62.830483,16.606375,
902,-0.231193,0.212844,-0.16422,-0.078047,-0.375368,1.537716,97.078646,-58.046779,14.529241,
903,-0.231193,0.212844,-0.16422,-0.04705,-0.456051,1.296802,92.546717,-52.06715,13.081541,
904,-0.240367,0.208257,-0.162385,0.003988,-0.528213,1.098928,88.895996,-47.786995,11.507954,
905,-0.240367,0.208257,-0.162385,0.053958,-0.589724,0.943552,86.189427,-44.954539,11.25618,
906,-0.240367,0.208257,-0.162385,0.092704,-0.646708,0.834464,82.223988,-44.702765,11.004407,
907,-0.244037,0.200917,-0.157798,0.125839,-0.6752,0.721587,77.755002,-44.136274,11.130293,
908,-0.244037,0.200917,-0.157798,0.134123,-0.679194,0.615205,72.404808,-43.380952,11.130293,
909,-0.245872,0.192661,-0.155046,0.123701,-0.65017,0.524524,65.984574,-43.947443,10.87852,
910,-0.245872,0.192661,-0.155046,0.103126,-0.611293,0.435197,58.116641,-44.136274,10.437915,
911,-0.245872,0.192661,-0.155046,0.069724,-0.579605,0.371855,49.55633,-43.758613,9.61965,
912,-0.253211,0.189908,-0.152294,0.039528,-0.536734,0.29146,42.129001,-43.506839,8.612555,
913,-0.253211,0.189908,-0.152294,0.002652,-0.495727,0.199967,38.66711,-41.240874,8.234894,
914,-0.253211,0.189908,-0.152294,-0.026742,-0.465637,0.141228,39.737149,-38.219588,6.598364,
915,-0.254128,0.187156,-0.148624,-0.067092,-0.452323,0.055419,40.555414,-33.624715,5.087721,
916,-0.254128,0.187156,-0.148624,-0.101563,-0.441406,-0.0109,39.359488,-27.645086,3.26236,
917,-0.259633,0.184404,-0.144037,-0.127215,-0.437944,-0.066391,35.456994,-22.609608,1.374056,
918,-0.259633,0.184404,-0.144037,-0.166229,-0.446731,-0.134876,28.84793,-17.888849,-0.325417,
919,-0.259633,0.184404,-0.144037,-0.192149,-0.431553,-0.194969,22.8683,-11.972163,-1.584287,
920,-0.261468,0.182569,-0.141284,-0.203105,-0.418772,-0.250731,18.336371,-5.677816,-3.661421,
921,-0.261468,0.182569,-0.141284,-0.220207,-0.433684,-0.282402,14.68565,1.812456,-4.794403,
922,-0.261468,0.182569,-0.141284,-0.239714,-0.455252,-0.313531,10.15372,7.225594,-4.605573,
923,-0.262385,0.180734,-0.141284,-0.227422,-0.499189,-0.375519,3.733487,10.372767,-1.899004,
924,-0.262385,0.180734,-0.141284,-0.232499,-0.526616,-0.437778,-4.952711,14.275262,0.429904,
925,-0.26055,0.177982,-0.140367,-0.215931,-0.538066,-0.456185,-11.372945,21.261987,1.374056,
926,-0.26055,0.177982,-0.140367,-0.21994,-0.550847,-0.456726,-14.079514,26.675125,3.07353,
927,-0.26055,0.177982,-0.140367,-0.218604,-0.543391,-0.464035,-15.27544,30.137015,4.961834,
928,-0.259633,0.178899,-0.143119,-0.208449,-0.502917,-0.432364,-17.478461,33.787736,4.71006,
929,-0.259633,0.178899,-0.143119,-0.223146,-0.473626,-0.354405,-21.947447,37.816118,2.444095,
930,-0.259633,0.178899,-0.143119,-0.216199,-0.485342,-0.255333,-32.962553,37.879062,-0.514248,
931,-0.257798,0.179817,-0.144954,-0.205777,-0.5141,-0.207691,-52.097367,33.473019,-3.346704,
932,-0.257798,0.179817,-0.144954,-0.178521,-0.48694,-0.16411,-77.274753,30.325846,-9.263389,
933,-0.255046,0.182569,-0.146789,-0.154204,-0.419571,-0.021457,-99.74557,35.046606,-17.194266,
934,-0.255046,0.182569,-0.146789,-0.134697,-0.363119,0.164236,-110.697733,42.977482,-22.292687,
935,-0.255046,0.182569,-0.146789,-0.092744,-0.281371,0.396488,-110.697733,51.411907,-27.642881,
936,-0.252294,0.184404,-0.149541,-0.058273,-0.227583,0.711571,-102.703913,59.972218,-30.727111,
937,-0.252294,0.184404,-0.149541,-0.015786,-0.1927,1.033151,-97.227831,66.644225,-33.43368,
938,-0.252294,0.184404,-0.149541,0.082283,-0.148497,1.431065,-96.598397,71.553816,-37.210288,
939,-0.247706,0.194495,-0.152294,0.193178,-0.059826,1.867146,-95.843075,75.204537,-41.301613,
940,-0.247706,0.194495,-0.152294,0.354844,0.026982,2.367381,-90.492881,74.763932,-44.134069,
941,-0.23945,0.199083,-0.158716,0.47242,0.031775,2.883045,-83.632043,67.336603,-45.078221,
942,-0.23945,0.199083,-0.158716,0.562205,-0.022014,3.341593,-79.100113,52.041341,-42.371652,
943,-0.23945,0.199083,-0.158716,0.640766,-0.080596,3.695655,-76.14177,30.76645,-35.573758,
944,-0.23578,0.201835,-0.16055,0.670427,-0.147166,3.807721,-67.266742,1.623626,-23.110952,
945,-0.23578,0.201835,-0.16055,0.588926,-0.195363,3.634479,-48.446646,-37.023662,-5.990329,
946,-0.23578,0.201835,-0.16055,0.426726,-0.1927,3.201376,-19.681482,-65.788826,8.738442,
947,-0.23211,0.208257,-0.161468,0.249828,-0.129591,2.754467,20.728223,-72.58672,16.039884,
948,-0.23211,0.208257,-0.161468,0.07293,-0.082726,2.367651,56.291281,-73.153211,19.816492,
949,-0.233945,0.210092,-0.162385,-0.069497,-0.115745,2.047154,82.161045,-64.907617,23.404269,
950,-0.233945,0.210092,-0.162385,-0.159014,-0.196694,1.794601,94.623851,-55.214323,23.215439,
951,-0.233945,0.210092,-0.162385,-0.178254,-0.275513,1.550709,97.267476,-48.353486,20.823587,
952,-0.236697,0.209174,-0.158716,-0.154204,-0.359391,1.320623,95.379173,-41.492648,18.117018,
953,-0.236697,0.209174,-0.158716,-0.095951,-0.452323,1.134118,91.791395,-34.757697,15.032788,
954,-0.236697,0.209174,-0.158716,-0.032621,-0.54632,0.976035,89.840148,-32.177015,11.382067,
955,-0.244037,0.200917,-0.155046,0.026167,-0.632329,0.818494,87.322409,-32.177015,10.186141,
956,-0.244037,0.200917,-0.155046,0.075068,-0.683188,0.689645,81.720441,-30.855202,8.864329,
957,-0.247706,0.19633,-0.152294,0.108203,-0.693307,0.592738,75.866698,-29.91105,6.34659,
958,-0.247706,0.19633,-0.152294,0.114883,-0.689579,0.494478,70.705334,-30.351655,4.458286,
959,-0.247706,0.19633,-0.152294,0.101522,-0.662152,0.424369,63.026231,-30.540485,2.381152,
960,-0.249541,0.192661,-0.151376,0.076671,-0.628068,0.337207,53.081164,-30.036937,1.374056,
961,-0.249541,0.192661,-0.151376,0.051286,-0.591588,0.245443,42.066057,-29.344559,0.052244,
962,-0.249541,0.192661,-0.151376,0.015746,-0.548717,0.149348,29.792082,-27.141538,-1.64723,
963,-0.254128,0.185321,-0.148624,-0.006968,-0.529278,0.048922,18.084597,-21.287796,-1.773117,
964,-0.254128,0.185321,-0.148624,-0.034758,-0.509307,-0.026059,9.713116,-14.489901,-1.773117,
965,-0.257798,0.181651,-0.144954,-0.052929,-0.4912,-0.084798,4.992356,-6.999629,-1.332513,
966,-0.257798,0.181651,-0.144954,-0.060411,-0.484277,-0.102122,3.733487,1.057135,-1.961947,
967,-0.257798,0.181651,-0.144954,-0.070833,-0.484543,-0.113762,2.537561,8.862124,-3.409647,
968,-0.257798,0.179817,-0.144954,-0.072703,-0.513302,-0.105912,0.901031,14.086432,-3.346704,
969,-0.257798,0.179817,-0.144954,-0.04999,-0.517029,-0.134335,0.397483,16.667114,-1.080739,
970,-0.257798,0.179817,-0.144954,-0.043844,-0.525018,-0.180352,0.649257,18.303644,1.437,
971,-0.255963,0.177982,-0.144954,-0.049188,-0.535403,-0.206609,1.152805,21.073156,4.269456,
972,-0.255963,0.177982,-0.144954,-0.064152,-0.562031,-0.25425,3.229939,24.157386,6.850138,
973,-0.258716,0.183486,-0.145872,-0.081788,-0.543657,-0.285921,4.048204,27.115729,8.234894,
974,-0.258716,0.183486,-0.145872,-0.10183,-0.539663,-0.314885,3.922317,30.011129,8.864329,
975,-0.258716,0.183486,-0.145872,-0.112251,-0.529811,-0.316238,0.082766,32.340037,8.612555,
976,-0.255046,0.181651,-0.147706,-0.102097,-0.529278,-0.277529,-7.722224,35.927814,9.179046,
977,-0.255046,0.181651,-0.147706,-0.1037,-0.552977,-0.221767,-16.597252,39.704422,7.668403,
978,-0.255046,0.181651,-0.147706,-0.110648,-0.549782,-0.157072,-25.975829,41.781557,5.276551,
979,-0.248624,0.179817,-0.149541,-0.11332,-0.535935,-0.082091,-36.739161,42.159217,1.122282,
980,-0.248624,0.179817,-0.149541,-0.121871,-0.505047,0.014003,-50.272006,42.159217,-4.102025,
981,-0.251376,0.185321,-0.149541,-0.121069,-0.477087,0.154221,-67.140855,42.159217,-9.200446,
982,-0.251376,0.185321,-0.149541,-0.113587,-0.430488,0.319071,-86.212725,43.040426,-16.627775,
983,-0.251376,0.185321,-0.149541,-0.075108,-0.355663,0.561068,-102.452139,47.509412,-24.621595,
984,-0.244954,0.189908,-0.154128,-0.033155,-0.294153,0.831757,-112.46015,51.600737,-30.286507,
985,-0.244954,0.189908,-0.154128,0.076938,-0.227849,1.136013,-116.299701,52.419002,-33.685454,
986,-0.244954,0.189908,-0.154128,0.208409,-0.187108,1.521475,-117.36974,53.866702,-35.384927,
987,-0.241284,0.193578,-0.159633,0.347897,-0.134651,1.967301,-115.292606,57.013875,-34.944323,
988,-0.241284,0.193578,-0.159633,0.495668,-0.075803,2.484048,-106.354634,59.27984,-30.538281,
989,-0.236697,0.201835,-0.16422,0.612976,-0.10749,2.981846,-88.226916,51.915454,-21.222648,
990,-0.236697,0.201835,-0.16422,0.637293,-0.17619,3.32481,-62.986586,31.773546,-7.626859,
991,-0.236697,0.201835,-0.16422,0.614579,-0.178054,3.449598,-35.354405,3.637817,5.717155,
992,-0.231193,0.205505,-0.165138,0.513304,-0.113615,3.394107,-6.841015,-25.442064,16.795205,
993,-0.231193,0.205505,-0.165138,0.352974,-0.01589,3.151569,18.776975,-47.472277,23.844873,
994,-0.231193,0.205505,-0.165138,0.191575,0.064261,2.867345,41.499566,-54.207228,28.062086,
995,-0.229358,0.210092,-0.165138,0.034184,0.049083,2.612896,60.508493,-52.570698,28.439746,
996,-0.229358,0.210092,-0.165138,-0.078582,-0.006303,2.373336,76.62202,-50.367677,27.180877,
997,-0.234862,0.206422,-0.16422,-0.151265,-0.108023,2.089382,87.511239,-49.801185,24.348421,
998,-0.234862,0.206422,-0.16422,-0.137102,-0.212138,1.808947,91.099017,-50.808281,19.816492,
999,-0.234862,0.206422,-0.16422,-0.115992,-0.313325,1.547461,89.651317,-48.101712,15.662223,
1000,-0.240367,0.204587,-0.16055,-0.059877,-0.407854,1.300863,88.140674,-44.891595,12.51505,
1001,-0.240367,0.204587,-0.16055,-0.01926,-0.490934,1.108944,88.266561,-41.996196,11.948559,
1002,-0.240367,0.204587,-0.16055,0.025633,-0.576943,0.953297,88.077731,-41.177931,10.941463,
1003,-0.243119,0.198165,-0.155963,0.060104,-0.629932,0.799545,85.811766,-41.807365,10.123198,
1004,-0.243119,0.198165,-0.155963,0.081748,-0.650702,0.684773,78.636211,-43.569782,9.116103,
1005,-0.247706,0.193578,-0.155963,0.080679,-0.649371,0.582993,68.376426,-45.017482,7.98312,
1006,-0.247706,0.193578,-0.155963,0.067051,-0.621145,0.470928,56.354224,-45.395143,6.53542,
1007,-0.247706,0.193578,-0.155963,0.039528,-0.583866,0.371585,46.346213,-44.010387,6.409534,
1008,-0.250459,0.187156,-0.151376,0.012806,-0.555374,0.273595,40.429527,-43.506839,6.34659,
1009,-0.250459,0.187156,-0.151376,-0.014183,-0.52342,0.166131,36.778806,-39.919061,6.283647,
1010,-0.250459,0.187156,-0.151376,-0.03556,-0.508242,0.048652,35.519937,-34.25415,6.598364,
1011,-0.255046,0.184404,-0.150459,-0.067893,-0.517296,-0.02281,35.645824,-26.575047,7.038968,
1012,-0.255046,0.184404,-0.150459,-0.091676,-0.503449,-0.088859,38.100619,-19.021831,7.668403,
1013,-0.257798,0.182569,-0.147706,-0.082323,-0.498124,-0.138395,41.56251,-11.405672,8.738442,
1014,-0.257798,0.182569,-0.147706,-0.093279,-0.517562,-0.20336,41.499566,-4.922495,10.815576,
1015,-0.257798,0.182569,-0.147706,-0.116794,-0.547918,-0.256416,37.219411,1.057135,12.452106,
1016,-0.26055,0.180734,-0.145872,-0.136835,-0.565759,-0.332209,31.365668,6.407329,15.221619,
1017,-0.26055,0.180734,-0.145872,-0.15073,-0.582801,-0.411792,27.463173,11.253976,16.417545,
1018,-0.26055,0.180734,-0.145872,-0.183064,-0.564694,-0.490292,24.441887,16.289453,17.361697,
1019,-0.259633,0.179817,-0.141284,-0.212725,-0.551912,-0.564461,21.546488,22.143195,16.480488,
1020,-0.259633,0.179817,-0.141284,-0.220207,-0.522621,-0.554445,14.49682,29.570524,14.277467,
1021,-0.262385,0.177064,-0.145872,-0.225284,-0.505579,-0.50545,6.628886,36.305475,10.815576,
1022,-0.262385,0.177064,-0.145872,-0.214328,-0.529811,-0.429928,-4.637994,39.389705,6.913081,
1023,-0.262385,0.177064,-0.145872,-0.209251,-0.539663,-0.334104,-21.63273,39.515592,3.26236,
1024,-0.254128,0.176147,-0.143119,-0.18627,-0.558569,-0.25804,-40.012221,36.871966,-0.577191,
1025,-0.254128,0.176147,-0.143119,-0.166496,-0.56496,-0.220685,-60.846508,31.144111,-5.360894,
1026,-0.254128,0.176147,-0.143119,-0.138439,-0.550314,-0.142455,-82.562004,29.822298,-11.403467,
1027,-0.255046,0.177982,-0.147706,-0.111182,-0.53274,0.009672,-103.711008,32.151206,-18.012531,
1028,-0.255046,0.177982,-0.147706,-0.091141,-0.478419,0.198614,-119.320988,37.312571,-23.614499,
1029,-0.251376,0.184404,-0.153211,-0.072169,-0.381226,0.41273,-126.244769,45.872882,-26.509899,
1030,-0.251376,0.184404,-0.153211,-0.055868,-0.264063,0.667449,-123.5382,55.566175,-27.454051,
1031,-0.251376,0.184404,-0.153211,0.013341,-0.132787,1.022052,-113.152528,67.399547,-28.398203,
1032,-0.247706,0.188073,-0.154128,0.116754,-0.039589,1.469773,-95.465414,80.240014,-29.279411,
1033,-0.247706,0.188073,-0.154128,0.244751,-0.004173,1.965406,-75.008788,85.841982,-27.705825,
1034,-0.247706,0.188073,-0.154128,0.394659,-0.015091,2.443174,-56.062805,82.631866,-22.040913,
1035,-0.241284,0.19633,-0.158716,0.534681,-0.066217,2.861119,-36.109727,69.980229,-13.858262,
1036,-0.241284,0.19633,-0.158716,0.609502,-0.122402,3.143177,-13.198305,47.635299,-4.794403,
1037,-0.233945,0.202752,-0.16055,0.615648,-0.169267,3.280688,8.768964,17.107718,2.066434,
1038,-0.233945,0.202752,-0.16055,0.561403,-0.196428,3.260657,20.728223,-15.245223,6.34659,
1039,-0.233945,0.202752,-0.16055,0.423786,-0.179918,3.084979,19.091693,-43.947443,8.801385,
1040,-0.230275,0.200917,-0.16422,0.26399,-0.176457,2.841629,9.209568,-60.690405,9.997311,
1041,-0.230275,0.200917,-0.16422,0.127977,-0.181782,2.537103,4.866469,-68.05479,7.416629,
1042,-0.230275,0.200917,-0.16422,0.012539,-0.22705,2.258022,8.013643,-71.642568,5.780099,
1043,-0.23211,0.201835,-0.163303,-0.082323,-0.252613,1.959451,14.245046,-73.090268,3.07353,
1044,-0.23211,0.201835,-0.163303,-0.156075,-0.287762,1.703649,16.636897,-68.747169,-0.828965,
1045,-0.238532,0.200917,-0.162385,-0.182529,-0.31865,1.52743,21.294714,-58.23561,-3.850251,
1046,-0.238532,0.200917,-0.162385,-0.148593,-0.371108,1.357978,31.680386,-51.689489,-5.486781,
1047,-0.238532,0.200917,-0.162385,-0.101295,-0.444867,1.206663,42.191944,-48.227599,-6.116216,
1048,-0.244037,0.198165,-0.158716,-0.04999,-0.516763,1.078626,49.241612,-43.947443,-5.801499,
1049,-0.244037,0.198165,-0.158716,0.010669,-0.57854,0.963854,53.01822,-41.870309,-6.745651,
1050,-0.244037,0.198165,-0.158716,0.05663,-0.60863,0.828238,53.710598,-40.61144,-7.060368,
1051,-0.247706,0.195413,-0.155046,0.084688,-0.62434,0.718068,51.004029,-40.107892,-6.619764,
1052,-0.247706,0.195413,-0.155046,0.092704,-0.633394,0.611957,47.605082,-39.226683,-6.053273,
1053,-0.255046,0.193578,-0.152294,0.079076,-0.632329,0.495019,45.087344,-39.226683,-5.486781,
1054,-0.255046,0.193578,-0.152294,0.075068,-0.641915,0.376186,41.75134,-38.660192,-4.542629,
1055,-0.255046,0.193578,-0.152294,0.058233,-0.615021,0.264933,35.016389,-35.072415,-3.28376,
1056,-0.254128,0.187156,-0.146789,0.03739,-0.590523,0.173981,28.784986,-30.414598,-1.773117,
1057,-0.254128,0.187156,-0.146789,0.012539,-0.58067,0.082759,26.078417,-25.00146,-0.0107,
1058,-0.254128,0.187156,-0.146789,-0.023268,-0.561498,0.003176,25.826643,-19.525379,1.877604,
1059,-0.257798,0.184404,-0.143119,-0.05667,-0.55351,-0.074241,25.134265,-12.727484,4.52123,
1060,-0.257798,0.184404,-0.143119,-0.083659,-0.54632,-0.154907,23.560679,-5.74076,6.031873,
1061,-0.256881,0.181651,-0.142202,-0.119199,-0.546853,-0.236385,20.287618,1.812456,6.976025,
1062,-0.256881,0.181651,-0.142202,-0.136301,-0.538864,-0.290523,15.944519,9.86922,7.731346,
1063,-0.256881,0.181651,-0.142202,-0.159816,-0.51197,-0.331938,12.986176,18.996022,7.605459,
1064,-0.263303,0.182569,-0.143119,-0.184934,-0.482679,-0.344119,12.545572,27.178673,7.290742,
1065,-0.263303,0.182569,-0.143119,-0.216733,-0.469632,-0.373354,11.286703,34.606002,6.031873,
1066,-0.263303,0.182569,-0.143119,-0.240248,-0.442737,-0.416393,6.188282,41.718613,5.717155,
1067,-0.261468,0.180734,-0.142202,-0.243188,-0.4225,-0.431552,0.460427,51.034246,6.15776,
1068,-0.261468,0.180734,-0.142202,-0.249601,-0.399866,-0.425326,-1.364934,59.216896,6.787194,
1069,-0.254128,0.182569,-0.143119,-0.226887,-0.388682,-0.401505,1.341635,64.315317,6.598364,
1070,-0.254128,0.182569,-0.143119,-0.184667,-0.390812,-0.357112,1.656353,66.518338,3.828851,
1071,-0.254128,0.182569,-0.143119,-0.143516,-0.401197,-0.307035,-7.155732,67.021886,-1.773117,
1072,-0.257798,0.182569,-0.146789,-0.109312,-0.420902,-0.21094,-24.716959,66.518338,-7.438029,
1073,-0.257798,0.182569,-0.146789,-0.09408,-0.413446,-0.096709,-43.851773,63.245278,-12.284676,
1074,-0.257798,0.182569,-0.146789,-0.075643,-0.409452,0.009131,-61.035339,55.503232,-17.571927,
1075,-0.248624,0.180734,-0.153211,-0.036094,-0.417174,0.101166,-78.722453,45.746995,-24.936312,
1076,-0.248624,0.180734,-0.153211,-0.000822,-0.431553,0.199426,-102.703913,38.319666,-33.118963,
1077,-0.242202,0.181651,-0.155963,0.020556,-0.441938,0.374562,-131.028472,35.48721,-40.483348,
1078,-0.242202,0.181651,-0.155963,0.020823,-0.392144,0.580016,-151.673929,38.886157,-44.70056,
1079,-0.242202,0.181651,-0.155963,0.067051,-0.294153,0.79765,-154.065781,43.543974,-45.267051,
1080,-0.238532,0.188991,-0.159633,0.140002,-0.184711,1.061302,-141.099427,49.964207,-42.938143,
1081,-0.238532,0.188991,-0.159633,0.244751,-0.086454,1.474916,-120.139253,61.734635,-40.672179,
1082,-0.238532,0.188991,-0.159633,0.372748,-0.036127,1.970279,-99.9344,73.190346,-35.384927,
1083,-0.234862,0.198165,-0.163303,0.476428,-0.060625,2.467265,-81.114304,77.155784,-28.52409,
1084,-0.234862,0.198165,-0.163303,0.547775,-0.080596,2.880338,-59.650583,70.54672,-20.593213,
1085,-0.22844,0.207339,-0.166972,0.60389,-0.093643,3.210038,-39.571617,54.496137,-13.165884,
1086,-0.22844,0.207339,-0.166972,0.606295,-0.08459,3.374347,-20.499747,31.269998,-5.990329,
1087,-0.22844,0.207339,-0.166972,0.560601,-0.092578,3.413867,-2.246142,5.526121,2.695869,
1088,-0.222018,0.208257,-0.173394,0.4791,-0.117076,3.284207,11.979081,-19.840096,10.437915,
1089,-0.222018,0.208257,-0.173394,0.38691,-0.124798,3.083084,20.098788,-35.387132,14.088636,
1090,-0.222018,0.208257,-0.173394,0.27655,-0.150095,2.869239,29.729138,-41.429705,14.718071,
1091,-0.221101,0.212844,-0.174312,0.190773,-0.187374,2.666493,42.569605,-48.038768,12.452106,
1092,-0.221101,0.212844,-0.174312,0.105531,-0.25208,2.4337,53.710598,-57.165571,12.074445,
1093,-0.222936,0.209174,-0.169725,0.0422,-0.307999,2.188725,60.63438,-61.949274,12.263276,
1094,-0.222936,0.209174,-0.169725,0.033115,-0.365516,1.888801,64.033327,-65.033504,12.389163,
1095,-0.222936,0.209174,-0.169725,0.019487,-0.406789,1.622172,68.879974,-63.900522,11.822672,
1096,-0.226606,0.206422,-0.16789,0.018685,-0.465105,1.385318,76.433189,-60.123914,10.626746,
1097,-0.226606,0.206422,-0.16789,0.027503,-0.520757,1.199625,82.916366,-55.403154,10.060255,
1098,-0.226606,0.206422,-0.16789,0.064112,-0.564427,1.018804,85.434105,-51.941263,9.808481,
1099,-0.237615,0.202752,-0.162385,0.091903,-0.586795,0.888602,83.986405,-48.919977,9.997311,
1100,-0.237615,0.202752,-0.162385,0.122098,-0.616618,0.772476,80.020967,-46.024578,10.060255,
1101,-0.241284,0.195413,-0.16055,0.165387,-0.633927,0.660952,73.915451,-43.8845,9.556707,
1102,-0.241284,0.195413,-0.16055,0.176343,-0.641116,0.57758,66.928726,-41.870309,9.871424,
1103,-0.241284,0.195413,-0.16055,0.166991,-0.620346,0.498267,60.256719,-39.730231,11.004407,
1104,-0.242202,0.189908,-0.155963,0.157638,-0.59718,0.432761,55.473015,-38.345475,12.766824,
1105,-0.242202,0.189908,-0.155963,0.133588,-0.559901,0.34614,52.011125,-37.464266,14.781014,
1106,-0.242202,0.189908,-0.155963,0.100988,-0.526616,0.249233,50.626369,-34.568867,17.676414,
1107,-0.247706,0.186239,-0.155963,0.06331,-0.493863,0.157198,52.325842,-29.973994,19.816492,
1108,-0.247706,0.186239,-0.155963,0.03739,-0.474158,0.100083,54.843581,-25.190291,21.704796,
1109,-0.251376,0.182569,-0.152294,0.009867,-0.461111,0.035929,57.109546,-19.525379,22.460117,
1110,-0.251376,0.182569,-0.152294,-0.011778,-0.45898,-0.024164,55.410072,-13.545749,22.711891,
1111,-0.251376,0.182569,-0.152294,-0.027276,-0.472028,-0.034991,48.926895,-8.510272,23.089552,
1112,-0.253211,0.180734,-0.148624,-0.043309,-0.486407,-0.079114,40.051866,-5.237212,23.467213,
1113,-0.253211,0.180734,-0.148624,-0.060411,-0.494129,-0.134876,31.239781,-3.600682,23.467213,
1114,-0.253211,0.180734,-0.148624,-0.091676,-0.501851,-0.193345,23.812452,-1.271774,22.586004,
1115,-0.256881,0.177982,-0.147706,-0.127483,-0.496792,-0.26995,18.714032,1.623626,21.956569,
1116,-0.256881,0.177982,-0.147706,-0.163824,-0.485342,-0.341954,15.755689,5.274347,21.956569,
1117,-0.255963,0.175229,-0.146789,-0.191347,-0.464306,-0.405024,13.741498,11.065145,21.515965,
1118,-0.255963,0.175229,-0.146789,-0.239179,-0.440607,-0.436424,12.419685,18.681305,20.005322,
1119,-0.255963,0.175229,-0.146789,-0.274185,-0.426228,-0.448876,12.986176,28.122825,18.117018,
1120,-0.255046,0.177064,-0.147706,-0.286477,-0.415577,-0.464576,10.909042,36.431362,16.228714,
1121,-0.255046,0.177064,-0.147706,-0.293692,-0.41531,-0.467283,1.404579,44.739899,14.277467,
1122,-0.255046,0.177064,-0.147706,-0.292356,-0.406257,-0.419371,-10.114075,53.614928,9.997311,
1123,-0.254128,0.178899,-0.147706,-0.252807,-0.400931,-0.341683,-19.933256,61.923465,4.835947,
1124,-0.254128,0.178899,-0.147706,-0.203907,-0.408121,-0.213647,-29.563606,66.455395,0.052244,
1125,-0.248624,0.176147,-0.151376,-0.172642,-0.423032,-0.065579,-40.326939,66.581282,-6.36799,
1126,-0.248624,0.176147,-0.151376,-0.120268,-0.439808,0.10685,-53.60801,63.056448,-13.354715,
1127,-0.248624,0.176147,-0.151376,-0.057205,-0.452057,0.280904,-70.854519,55.314402,-19.208457,
1128,-0.244037,0.180734,-0.155963,0.022426,-0.484011,0.445212,-91.248202,45.495221,-23.236839,
1129,-0.244037,0.180734,-0.155963,0.073465,-0.484011,0.64444,-112.64898,37.879062,-26.321068,
1130,-0.244037,0.180734,-0.155963,0.114616,-0.473093,0.873985,-128.699564,32.969471,-29.720016,
1131,-0.237615,0.182569,-0.158716,0.191842,-0.407854,1.161187,-134.238589,30.199959,-30.852998,
1132,-0.237615,0.182569,-0.158716,0.282428,-0.358859,1.475999,-129.580773,29.822298,-26.950503,
1133,-0.236697,0.192661,-0.163303,0.364197,-0.308266,1.802451,-117.306797,29.696411,-20.782043,
1134,-0.236697,0.192661,-0.163303,0.413097,-0.239033,2.163822,-102.703913,29.12992,-15.180075,
1135,-0.236697,0.192661,-0.163303,0.43688,-0.156219,2.532501,-85.268573,29.507581,-10.522259,
1136,-0.23211,0.2,-0.16422,0.430199,-0.057163,2.86951,-61.098282,27.556333,-6.17916,
1137,-0.23211,0.2,-0.16422,0.387445,0.011271,3.135598,-33.969649,17.86304,-0.828965,
1138,-0.23211,0.2,-0.16422,0.334268,0.07651,3.262822,-9.10698,2.378947,3.577078,
1139,-0.227523,0.206422,-0.166055,0.250629,0.114322,3.294764,10.468438,-12.223937,6.409534,
1140,-0.227523,0.206422,-0.166055,0.171266,0.107398,3.192714,24.882491,-22.106061,7.479572,
1141,-0.224771,0.208257,-0.16789,0.110608,0.056006,2.992133,35.456994,-28.589238,8.297838,
1142,-0.224771,0.208257,-0.16789,0.067319,-0.057429,2.760693,43.513757,-32.80645,7.479572,
1143,-0.224771,0.208257,-0.16789,0.050217,-0.196694,2.48107,51.444634,-37.275436,4.773003,
1144,-0.22844,0.205505,-0.169725,0.046476,-0.314124,2.233118,59.37551,-41.114987,0.933452,
1145,-0.22844,0.205505,-0.169725,0.062509,-0.409718,1.942668,66.99167,-46.654012,0.17813,
1146,-0.22844,0.205505,-0.169725,0.052889,-0.474158,1.665482,72.341864,-53.70368,1.248169,
1147,-0.230275,0.205505,-0.165138,0.049682,-0.522621,1.428899,75.740811,-56.284362,2.192321,
1148,-0.230275,0.205505,-0.165138,0.062241,-0.561498,1.191775,78.321493,-57.039684,1.751717,
1149,-0.23578,0.198165,-0.163303,0.073732,-0.577209,1.002021,79.139758,-56.095532,1.62583,
1150,-0.23578,0.198165,-0.163303,0.083352,-0.589191,0.86018,77.880889,-55.591984,0.366961,
1151,-0.23578,0.198165,-0.163303,0.081748,-0.590523,0.731873,72.782468,-54.333115,-0.136587,
1152,-0.240367,0.190826,-0.155963,0.093239,-0.584665,0.617912,64.285101,-52.130094,0.366961,
1153,-0.240367,0.190826,-0.155963,0.09217,-0.567623,0.516674,56.354224,-50.871224,1.688774,
1154,-0.240367,0.190826,-0.155963,0.096445,-0.561232,0.402443,51.004029,-49.297638,3.010586,
1155,-0.244954,0.187156,-0.155046,0.091368,-0.567889,0.307973,47.9198,-45.772804,4.773003,
1156,-0.244954,0.187156,-0.155046,0.081748,-0.569753,0.199697,45.465005,-41.744422,8.486668,
1157,-0.250459,0.182569,-0.151376,0.046743,-0.547918,0.10306,48.234517,-35.764793,13.585089,
1158,-0.250459,0.182569,-0.151376,0.027503,-0.543924,-0.001155,57.235433,-29.029842,18.935283,
1159,-0.250459,0.182569,-0.151376,0.002919,-0.528213,-0.105371,66.425178,-21.350739,22.586004,
1160,-0.254128,0.177064,-0.146789,-0.027009,-0.521024,-0.177104,71.020051,-13.042202,24.033704,
1161,-0.254128,0.177064,-0.146789,-0.072436,-0.518361,-0.216354,68.061709,-4.418947,24.033704,
1162,-0.254128,0.177064,-0.146789,-0.100494,-0.528213,-0.254792,60.508493,2.756608,23.530156,
1163,-0.257798,0.176147,-0.146789,-0.133361,-0.526882,-0.308388,49.430443,7.917972,23.152495,
1164,-0.257798,0.176147,-0.146789,-0.162755,-0.53061,-0.395009,40.240697,13.14228,23.656043,
1165,-0.259633,0.174312,-0.145872,-0.186538,-0.520757,-0.435342,33.694576,20.129004,23.718987,
1166,-0.259633,0.174312,-0.145872,-0.208717,-0.515964,-0.483254,29.162647,26.738068,22.648948,
1167,-0.259633,0.174312,-0.145872,-0.236774,-0.530343,-0.493811,24.378944,32.843584,21.453022,
1168,-0.257798,0.170642,-0.144037,-0.242386,-0.512503,-0.49733,19.40641,37.312571,18.746453,
1169,-0.257798,0.170642,-0.144037,-0.241584,-0.510106,-0.47378,11.034929,39.956196,15.095732,
1170,-0.257798,0.170642,-0.144037,-0.235171,-0.503715,-0.429657,-1.050216,42.725709,12.200332,
1171,-0.256881,0.17156,-0.144954,-0.210587,-0.482946,-0.365504,-13.764796,42.662765,9.116103,
1172,-0.256881,0.17156,-0.144954,-0.155808,-0.474158,-0.249919,-26.164659,41.340952,4.458286,
1173,-0.255046,0.172477,-0.151376,-0.143783,-0.496792,-0.109702,-38.060974,39.389705,1.248169,
1174,-0.255046,0.172477,-0.151376,-0.096485,-0.511171,0.027538,-51.467932,34.417171,-1.710173,
1175,-0.255046,0.172477,-0.151376,-0.078849,-0.51916,0.184538,-68.210894,27.052786,-3.220817,
1176,-0.251376,0.174312,-0.152294,-0.064954,-0.523686,0.29119,-84.702082,20.003118,-5.297951,
1177,-0.251376,0.174312,-0.152294,-0.052662,-0.505047,0.423557,-101.067383,16.981831,-8.508068,
1178,-0.251376,0.174312,-0.152294,-0.049188,-0.454187,0.602754,-111.641885,20.003118,-12.347619,
1179,-0.246789,0.178899,-0.154128,-0.041172,-0.366315,0.849623,-110.445959,27.178673,-14.17298,
1180,-0.246789,0.178899,-0.154128,0.00185,-0.259802,1.153607,-98.801418,33.724793,-14.36181,
1181,-0.243119,0.186239,-0.155963,0.034985,-0.182315,1.505504,-83.254382,39.704422,-13.291771,
1182,-0.243119,0.186239,-0.155963,0.073197,-0.101898,1.871477,-69.092102,43.732804,-15.117132,
1183,-0.243119,0.186239,-0.155963,0.122365,-0.02734,2.26127,-57.510505,43.543974,-21.159704,
1184,-0.240367,0.192661,-0.158716,0.163784,-0.005771,2.639424,-49.894345,39.263818,-27.516994,
1185,-0.240367,0.192661,-0.158716,0.176878,-0.024411,2.97156,-49.642572,28.563429,-33.181906,
1186,-0.240367,0.192661,-0.158716,0.204668,-0.067282,3.186217,-53.482123,11.631637,-37.021458,
1187,-0.23578,0.197248,-0.159633,0.214822,-0.09391,3.215181,-57.951109,-8.887933,-37.902666,
1188,-0.23578,0.197248,-0.159633,0.235131,-0.129591,3.106905,-58.769374,-28.715125,-35.825532,
1189,-0.234862,0.198165,-0.166972,0.245018,-0.200955,2.895767,-51.97148,-42.059139,-32.615415,
1190,-0.234862,0.198165,-0.166972,0.240742,-0.310396,2.609377,-33.969649,-50.556507,-28.90175,
1191,-0.234862,0.198165,-0.166972,0.175274,-0.405724,2.358718,-10.114075,-57.920893,-24.118047,
1192,-0.233945,0.201835,-0.165138,0.120762,-0.437145,2.081261,10.971986,-64.907617,-18.201361,
1193,-0.233945,0.201835,-0.165138,0.059569,-0.438477,1.817068,27.840834,-63.585804,-12.53645,
1194,-0.233945,0.201835,-0.165138,0.026434,-0.434749,1.585358,42.003114,-62.641652,-9.45222,
1195,-0.23945,0.198165,-0.159633,-0.002692,-0.452323,1.378551,51.004029,-60.375688,-7.060368,
1196,-0.23945,0.198165,-0.159633,-0.010442,-0.470697,1.202061,57.927811,-55.214323,-4.668516,
1197,-0.244954,0.198165,-0.156881,0.005057,-0.503715,1.030444,64.033327,-51.752433,-2.717269,
1198,-0.244954,0.198165,-0.156881,0.033115,-0.536734,0.880752,69.257634,-47.849938,-1.521343,
1199,-0.244954,0.198165,-0.156881,0.064379,-0.552178,0.746761,70.390617,-44.702765,-0.954852,
1200,-0.248624,0.188991,-0.152294,0.096445,-0.570019,0.64823,69.572352,-41.429705,-1.080739,
1201,-0.248624,0.188991,-0.152294,0.111944,-0.58067,0.541849,66.362235,-39.415514,-1.395456,
1202,-0.248624,0.188991,-0.152294,0.115418,-0.584665,0.450897,61.452645,-38.156644,-1.206626,
1203,-0.255046,0.185321,-0.149541,0.115952,-0.575611,0.35805,55.661846,-37.338379,-0.954852,
1204,-0.255046,0.185321,-0.149541,0.092704,-0.551912,0.265474,51.19286,-36.646001,-1.143682,
1205,-0.255046,0.185321,-0.149541,0.08442,-0.549249,0.164236,46.220326,-35.072415,-0.577191,
1206,-0.257798,0.183486,-0.145872,0.056363,-0.539663,0.065435,38.541223,-32.051128,-0.0107,
1207,-0.257798,0.183486,-0.145872,0.019754,-0.521556,-0.024705,30.169742,-27.645086,-0.0107,
1208,-0.263303,0.177064,-0.143119,-0.023001,-0.510106,-0.111867,22.742414,-20.532474,-0.703078,
1209,-0.263303,0.177064,-0.143119,-0.044378,-0.493064,-0.16384,19.280523,-12.664541,-1.269569,
1210,-0.263303,0.177064,-0.143119,-0.071634,-0.487472,-0.219873,17.832823,-6.370194,-0.891908,
1211,-0.266972,0.175229,-0.141284,-0.090874,-0.489603,-0.294854,15.063311,0.61653,-0.514248,
1212,-0.266972,0.175229,-0.141284,-0.105036,-0.496792,-0.32084,11.538477,9.113898,0.681678,
1213,-0.266972,0.175229,-0.141284,-0.102899,-0.509307,-0.339788,9.713116,16.730057,2.695869,
1214,-0.263303,0.175229,-0.141284,-0.104769,-0.522888,-0.390678,9.96489,22.520856,4.961834,
1215,-0.263303,0.175229,-0.141284,-0.101028,-0.522089,-0.437778,9.587229,28.374598,5.339495,
1216,-0.263303,0.175229,-0.13945,-0.108777,-0.53274,-0.439131,5.621791,35.424267,3.954738,
1217,-0.263303,0.175229,-0.13945,-0.118664,-0.52342,-0.402859,-0.169008,41.970387,2.884699,
1218,-0.263303,0.175229,-0.13945,-0.117061,-0.528479,-0.369564,-7.973998,45.998769,2.066434,
1219,-0.265138,0.175229,-0.142202,-0.11145,-0.531941,-0.315426,-17.667291,49.271829,0.17813,
1220,-0.265138,0.175229,-0.142202,-0.104502,-0.514367,-0.226098,-28.556511,51.28602,-3.535534,
1221,-0.265138,0.175229,-0.142202,-0.076177,-0.509307,-0.074512,-40.515769,52.859606,-7.123311,
1222,-0.258716,0.170642,-0.145872,-0.077246,-0.518095,0.081405,-51.97148,49.964207,-9.892824,
1223,-0.258716,0.170642,-0.145872,-0.036094,-0.517828,0.214585,-65.126664,43.606917,-12.72528,
1224,-0.253211,0.176147,-0.149541,-0.013381,-0.489869,0.333688,-78.218905,38.823214,-17.63487,
1225,-0.253211,0.176147,-0.149541,-0.006701,-0.466969,0.502869,-92.066467,36.997853,-24.621595,
1226,-0.253211,0.176147,-0.149541,0.020823,-0.41531,0.721857,-106.858182,39.578535,-30.223563,
1227,-0.252294,0.178899,-0.149541,0.064112,-0.353001,0.990923,-117.36974,44.425182,-30.727111,
1228,-0.252294,0.178899,-0.149541,0.137329,-0.278442,1.313856,-117.936231,46.502316,-27.013447,
1229,-0.252294,0.178899,-0.149541,0.230855,-0.192167,1.647075,-110.383016,49.712433,-23.929217,
1230,-0.244954,0.185321,-0.154128,0.29285,-0.131455,2.06096,-99.55674,54.55908,-19.712005,
1231,-0.244954,0.185321,-0.154128,0.329459,-0.07314,2.46131,-83.94676,54.622023,-16.061284,
1232,-0.241284,0.191743,-0.158716,0.375687,0.026449,2.844065,-60.846508,48.894168,-12.788223,
1233,-0.241284,0.191743,-0.158716,0.413899,0.064793,3.156171,-33.591988,37.942005,-8.130407,
1234,-0.241284,0.191743,-0.158716,0.387445,0.069586,3.355128,-7.155732,21.702591,-2.276665,
1235,-0.237615,0.198165,-0.162385,0.344957,0.010206,3.384091,11.790251,0.112983,2.255265,
1236,-0.237615,0.198165,-0.162385,0.279489,-0.041453,3.237648,23.938339,-21.161909,5.402438,
1237,-0.237615,0.198165,-0.162385,0.201462,-0.069678,2.938807,30.736234,-37.71604,7.479572,
1238,-0.23578,0.2,-0.163303,0.149354,-0.13039,2.62995,39.548319,-46.779899,8.360781,
1239,-0.23578,0.2,-0.163303,0.076938,-0.251015,2.359531,51.129916,-49.486468,7.164855,
1240,-0.234862,0.199083,-0.163303,0.043804,-0.334894,2.059336,58.809019,-55.591984,7.668403,
1241,-0.234862,0.199083,-0.163303,0.002919,-0.405724,1.775382,59.438454,-61.193953,8.171951,
1242,-0.234862,0.199083,-0.163303,-0.031552,-0.443536,1.509294,61.263814,-62.201048,8.171951,
1243,-0.240367,0.195413,-0.158716,-0.032086,-0.47975,1.255116,64.662761,-61.760444,8.801385,
1244,-0.240367,0.195413,-0.158716,-0.026207,-0.506911,1.036399,67.998765,-59.494479,8.801385,
1245,-0.240367,0.195413,-0.158716,-0.013381,-0.54632,0.876421,70.26473,-54.521945,8.738442,
1246,-0.244037,0.192661,-0.157798,0.009867,-0.571617,0.744325,69.698239,-50.934168,8.486668,
1247,-0.244037,0.192661,-0.157798,0.021624,-0.584665,0.6328,67.746991,-47.15756,8.864329,
1248,-0.249541,0.185321,-0.153211,0.028572,-0.583333,0.523983,66.614009,-44.262161,9.493763,
1249,-0.249541,0.185321,-0.153211,0.03739,-0.580404,0.409481,66.173405,-42.688574,11.004407,
1250,-0.249541,0.185321,-0.153211,0.038726,-0.584931,0.306348,65.166309,-40.233779,13.459202,
1251,-0.255046,0.182569,-0.148624,0.012005,-0.580138,0.194554,62.900344,-36.646001,15.725166,
1252,-0.255046,0.182569,-0.148624,-0.02113,-0.560433,0.093857,62.396797,-31.044033,17.991131,
1253,-0.255046,0.182569,-0.148624,-0.042775,-0.53274,-0.031202,64.285101,-25.379121,19.564718,
1254,-0.258716,0.181651,-0.144954,-0.080185,-0.508775,-0.120529,66.676952,-17.951792,20.445926,
1255,-0.258716,0.181651,-0.144954,-0.114389,-0.503449,-0.201195,65.040422,-9.706198,20.068266,
1256,-0.263303,0.173394,-0.138532,-0.144317,-0.510106,-0.274823,57.990754,-1.964152,18.557622,
1257,-0.263303,0.173394,-0.138532,-0.160885,-0.527681,-0.335457,45.087344,5.777894,16.417545,
1258,-0.263303,0.173394,-0.138532,-0.179323,-0.527681,-0.392302,29.414421,13.960545,14.969845,
1259,-0.261468,0.170642,-0.141284,-0.192951,-0.524485,-0.436154,17.581049,22.080252,13.396258,
1260,-0.261468,0.170642,-0.141284,-0.207113,-0.525284,-0.465388,11.916137,29.066977,12.766824,
1261,-0.261468,0.170642,-0.141284,-0.203372,-0.533273,-0.496517,9.020738,34.983662,13.648032,
1262,-0.26422,0.170642,-0.141284,-0.202036,-0.517296,-0.496788,8.768964,41.592726,13.648032,
1263,-0.26422,0.170642,-0.141284,-0.195623,-0.529811,-0.478923,8.706021,46.942921,12.200332,
1264,-0.265138,0.172477,-0.143119,-0.199631,-0.549782,-0.450771,3.985261,49.082999,10.374972,
1265,-0.265138,0.172477,-0.143119,-0.18921,-0.555906,-0.427762,-7.973998,48.957112,7.731346,
1266,-0.265138,0.172477,-0.143119,-0.167832,-0.537533,-0.357924,-24.842846,48.705338,2.318208,
1267,-0.258716,0.169725,-0.144037,-0.137904,-0.526083,-0.232324,-41.145204,48.20179,-3.535534,
1268,-0.258716,0.169725,-0.144037,-0.120001,-0.532207,-0.099957,-56.314579,43.606917,-8.948672,
1269,-0.258716,0.169725,-0.144037,-0.069497,-0.55351,0.048381,-75.260562,35.48721,-14.487697,
1270,-0.257798,0.169725,-0.146789,-0.035293,-0.580937,0.191847,-97.983153,28.311655,-19.649061,
1271,-0.257798,0.169725,-0.146789,0.007462,-0.540728,0.361569,-121.524009,24.472104,-24.810425,
1272,-0.253211,0.173394,-0.152294,0.044605,-0.469898,0.578662,-136.25278,28.122825,-28.398203,
1273,-0.253211,0.173394,-0.152294,0.095376,-0.409186,0.82878,-134.427419,34.857775,-27.957599,
1274,-0.253211,0.173394,-0.152294,0.152294,-0.315455,1.157126,-123.664087,39.830309,-24.747482,
1275,-0.244954,0.178899,-0.154128,0.204401,-0.224387,1.525535,-109.816524,47.572355,-21.411478,
1276,-0.244954,0.178899,-0.154128,0.26399,-0.134917,1.938608,-94.584206,54.622023,-18.579022,
1277,-0.244954,0.178899,-0.154128,0.296858,-0.024144,2.35926,-77.40064,58.020971,-16.942492,
1278,-0.243119,0.188991,-0.157798,0.312089,0.066391,2.769896,-58.076996,54.496137,-18.89374,
1279,-0.243119,0.188991,-0.157798,0.32545,0.117251,3.083626,-40.578713,42.662765,-19.963778,
1280,-0.23945,0.199083,-0.161468,0.340147,0.119381,3.273921,-25.724055,25.730973,-16.438944,
1281,-0.23945,0.199083,-0.161468,0.321709,0.058403,3.326976,-12.631814,6.407329,-10.270485,
1282,-0.23945,0.199083,-0.161468,0.289109,-0.039589,3.19109,-0.357838,-13.105145,-3.913195,
1283,-0.234862,0.199083,-0.162385,0.241811,-0.135982,2.901451,11.034929,-30.414598,0.429904,
1284,-0.234862,0.199083,-0.162385,0.172602,-0.212138,2.562006,27.2114,-41.870309,2.066434,
1285,-0.234862,0.199083,-0.162385,0.110875,-0.275779,2.28103,44.269079,-48.290542,0.17813,
1286,-0.233945,0.197248,-0.163303,0.038726,-0.324775,2.015754,54.46592,-51.689489,-1.899004,
1287,-0.233945,0.197248,-0.163303,-0.014717,-0.386019,1.775923,54.27709,-53.829567,-1.332513,
1288,-0.240367,0.197248,-0.16422,-0.047852,-0.446731,1.54692,51.759351,-53.451906,-0.828965,
1289,-0.240367,0.197248,-0.16422,-0.047585,-0.460578,1.30763,52.451729,-54.836663,-1.395456,
