,,,,,,,,,,
,,,,,,,,,,
,,,,,,,,,,
,,,,,,,,,,
,,,,,,,,,,
,,,,,,,,,,
,,,,,,,,,,
,,,,,,,,,,
,,,,,,,,,,
index,Geomagnetism_X,Geomagnetism_Y,Geomagnetism_Z,Acceleration_X,Acceleration_Y,Acceleration_Z,Angular_velocity_X,Angular_velocity_Y,Angular_velocity_Z, 
1,-0.313761,0.222018,-0.134862,-0.046351,0.554141,1.221132,123.273829,88.26625,135.417359,
2,-0.313761,0.222018,-0.134862,-0.061513,0.558149,1.136507,138.506147,85.307907,137.557437,
3,-0.323853,0.246789,-0.121101,-0.063375,0.52635,1.08375,145.807589,82.28662,141.837593,
4,-0.323853,0.246789,-0.121101,-0.067631,0.477181,1.039295,148.891819,81.216581,148.446657,
5,-0.323853,0.246789,-0.121101,-0.076941,0.39648,0.980379,151.09484,80.838921,155.622212,
6,-0.308257,0.287156,-0.129358,-0.08758,0.308296,0.923605,153.549636,81.594242,162.105389,
7,-0.308257,0.287156,-0.129358,-0.09423,0.215303,0.862546,156.130318,82.412507,167.140866,
8,-0.308257,0.287156,-0.129358,-0.103806,0.10788,0.80363,157.955678,83.167829,169.847435,
9,-0.297248,0.283486,-0.136697,-0.110722,-0.008362,0.746588,161.543456,82.978999,169.910378,
10,-0.297248,0.283486,-0.136697,-0.10886,-0.124871,0.674014,166.453046,83.230772,166.574375,
11,-0.285321,0.277982,-0.140367,-0.10088,-0.241914,0.624471,174.572753,82.790168,161.853615,
12,-0.285321,0.277982,-0.140367,-0.099284,-0.343192,0.563948,183.258951,82.349564,155.622212,
13,-0.285321,0.277982,-0.140367,-0.09556,-0.419617,0.507442,191.630432,81.90896,148.006052,
14,-0.276147,0.272477,-0.146789,-0.08359,-0.48963,0.455221,200.379574,80.524203,139.697515,
15,-0.276147,0.272477,-0.146789,-0.084388,-0.549487,0.410766,207.177468,78.321182,129.626561,
16,-0.276147,0.272477,-0.146789,-0.094496,-0.595717,0.389342,213.157097,76.369935,120.499758,
17,-0.266055,0.266055,-0.154128,-0.083856,-0.649428,0.373006,217.374309,74.2928,111.435899,
18,-0.266055,0.266055,-0.154128,-0.075079,-0.691115,0.358545,220.962087,71.838005,102.875588,
19,-0.266055,0.266055,-0.154128,-0.059119,-0.738681,0.346226,223.92043,68.879662,94.944711,
20,-0.266055,0.266055,-0.154128,-0.03651,-0.776359,0.32748,226.689942,66.739584,86.950891,
21,-0.266055,0.266055,-0.154128,-0.016294,-0.819382,0.306323,228.83002,66.236037,79.020014,
22,-0.250459,0.234862,-0.16422,-0.002728,-0.868284,0.270706,229.522398,66.047206,71.529742,
23,-0.250459,0.234862,-0.16422,0.013231,-0.925202,0.235892,227.885868,64.977167,64.291244,
24,-0.243119,0.222018,-0.166055,0.029989,-0.981853,0.187955,223.479826,64.033015,56.989802,
25,-0.243119,0.222018,-0.166055,0.05047,-1.039306,0.152606,217.122536,63.151807,50.443681,
26,-0.243119,0.222018,-0.166055,0.062174,-1.079656,0.118327,209.254602,61.326446,44.086391,
27,-0.23578,0.206422,-0.173394,0.074676,-1.130161,0.069855,198.931874,57.801612,38.106762,
28,-0.23578,0.206422,-0.173394,0.111915,-1.17933,0.046824,186.343181,53.710287,33.134228,
29,-0.23578,0.206422,-0.173394,0.13213,-1.217009,0.003708,170.544371,49.556018,28.791129,
30,-0.231193,0.188073,-0.173394,0.151282,-1.257359,-0.007272,152.605484,44.394654,24.44803,
31,-0.231193,0.188073,-0.173394,0.168306,-1.28034,-0.056547,132.967122,39.422121,20.545535,
32,-0.225688,0.172477,-0.174312,0.189851,-1.312407,-0.064313,112.888157,34.575474,17.272475,
33,-0.225688,0.172477,-0.174312,0.195703,-1.328173,-0.072883,92.998022,28.721731,14.502962,
34,-0.225688,0.172477,-0.174312,0.210333,-1.341534,-0.066991,74.177926,22.427385,11.292846,
35,-0.222936,0.162385,-0.175229,0.208205,-1.341267,-0.069937,57.120247,16.070095,8.64922,
36,-0.222936,0.162385,-0.175229,0.221504,-1.34581,-0.062439,42.265589,9.461031,4.683782,
37,-0.222936,0.162385,-0.175229,0.230814,-1.347948,-0.058422,30.935765,3.98495,0.907174,
38,-0.219266,0.153211,-0.172477,0.216982,-1.33325,-0.038337,22.186623,-0.672867,-3.372982,
39,-0.219266,0.153211,-0.172477,0.228952,-1.328173,-0.029231,13.122764,-5.078909,-6.897816,
40,-0.222018,0.147706,-0.176147,0.224696,-1.307864,-0.019858,3.24064,-8.603744,-9.289667,
41,-0.222018,0.147706,-0.176147,0.226558,-1.304123,0.002369,-6.641484,-11.750917,-10.737367,
42,-0.222018,0.147706,-0.176147,0.228686,-1.291029,0.001834,-15.768286,-15.149864,-12.373897,
43,-0.220183,0.148624,-0.173394,0.227622,-1.289426,0.002637,-25.083919,-18.045263,-14.828692,
44,-0.220183,0.148624,-0.173394,0.223632,-1.28996,-0.013967,-34.399552,-20.437115,-16.591109,
45,-0.223853,0.148624,-0.175229,0.222036,-1.285418,-0.022001,-43.778128,-23.206627,-19.612396,
46,-0.223853,0.148624,-0.175229,0.219908,-1.293701,-0.018519,-53.471422,-26.920292,-23.32606,
47,-0.223853,0.148624,-0.175229,0.220706,-1.28515,-0.024411,-62.787055,-30.067465,-27.417385,
48,-0.221101,0.150459,-0.175229,0.216184,-1.276599,-0.021733,-72.291518,-33.340525,-31.445767,
49,-0.221101,0.150459,-0.175229,0.214854,-1.248808,-0.028428,-82.614246,-37.683625,-35.222375,
50,-0.221101,0.150459,-0.175229,0.208205,-1.222353,-0.044764,-93.062862,-42.152611,-39.880192,
51,-0.223853,0.155046,-0.172477,0.210333,-1.194028,-0.050388,-103.826194,-47.125144,-44.663895,
52,-0.223853,0.155046,-0.172477,0.207407,-1.156884,-0.046103,-115.344848,-51.59413,-48.377559,
53,-0.229358,0.159633,-0.173394,0.197831,-1.130963,-0.046103,-126.863502,-55.874286,-51.272959,
54,-0.229358,0.159633,-0.173394,0.191181,-1.097026,-0.049316,-138.004496,-60.909763,-55.11251,
55,-0.229358,0.159633,-0.173394,0.184531,-1.069235,-0.023875,-147.88662,-66.952336,-58.637344,
56,-0.230275,0.166972,-0.17156,0.183733,-1.047857,-0.008879,-156.446931,-72.554304,-63.169274,
57,-0.230275,0.166972,-0.17156,0.173093,-1.027548,0.006118,-163.370712,-78.533934,-68.078864,
58,-0.230275,0.166972,-0.17156,0.163252,-1.010713,0.013081,-167.839698,-84.954167,-74.310267,
59,-0.237615,0.178899,-0.173394,0.152346,-0.982655,0.009064,-171.364532,-91.18557,-80.604614,
60,-0.237615,0.178899,-0.173394,0.140908,-0.947381,0.006654,-175.455858,-97.039312,-86.647186,
61,-0.237615,0.178899,-0.173394,0.113245,-0.89848,0.009332,-183.13496,-103.585433,-92.186211,
62,-0.237615,0.178899,-0.173394,0.115639,-0.856526,0.012278,-194.716558,-110.320384,-95.962819,
63,-0.237615,0.178899,-0.173394,0.116703,-0.80896,0.01683,-209.948877,-115.607635,-98.543501,
64,-0.251376,0.201835,-0.166972,0.090369,-0.762998,0.010135,-228.454255,-120.768999,-100.494749,
65,-0.251376,0.201835,-0.166972,0.070952,-0.7157,-0.006468,-251.743338,-128.888706,-103.075431,
66,-0.261468,0.215596,-0.16422,0.069356,-0.648894,-0.007272,-278.11665,-140.344416,-105.656113,
67,-0.261468,0.215596,-0.16422,0.08372,-0.567658,0.042271,-303.54581,-152.93311,-107.166756,
68,-0.261468,0.215596,-0.16422,0.090901,-0.470122,0.075211,-325.324249,-166.403011,-108.173851,
69,-0.27156,0.229358,-0.156881,0.053662,-0.341321,0.123951,-340.619511,-180.691178,-109.495664,
70,-0.27156,0.229358,-0.156881,-0.045553,-0.157472,0.168674,-349.053935,-194.412853,-112.391064,
71,-0.27156,0.229358,-0.156881,-0.228025,0.108681,0.199471,-350.06103,-207.568037,-116.041785,
72,-0.286239,0.254128,-0.147706,-0.468217,0.354793,0.336853,-340.493624,-223.744508,-126.112739,
73,-0.286239,0.254128,-0.147706,-0.785548,0.688019,0.611349,-322.80651,-236.018484,-148.961217,
74,-0.304587,0.275229,-0.133028,-1.138787,1.04583,1.189799,-278.431367,-238.599166,-179.299967,
75,-0.304587,0.275229,-0.133028,-1.535384,1.384668,1.978741,-206.361099,-228.528211,-221.912693,
76,-0.304587,0.275229,-0.133028,-1.843671,1.737668,2.905333,-98.413056,-209.771059,-260.434094,
77,-0.330275,0.291743,-0.112844,-1.978795,2.030544,3.775954,30.621048,-179.243478,-282.841968,
78,-0.330275,0.291743,-0.112844,-2.041038,2.257683,4.147395,150.402462,-117.055334,-281.520155,
79,-0.330275,0.291743,-0.112844,-1.97321,2.439661,4.06759,212.716493,-45.299784,-255.587447,
80,-0.350459,0.292661,-0.098165,-1.775044,2.606943,3.742211,203.589691,26.078106,-204.036749,
81,-0.350459,0.292661,-0.098165,-1.560653,2.793464,3.37586,134.91837,83.797264,-132.092368,
82,-0.350459,0.292661,-0.098165,-1.228427,3.004302,3.069763,54.539565,110.862954,-66.127617,
83,-0.350459,0.292661,-0.098165,-0.860026,3.076719,2.754293,-8.970392,121.185682,-16.276392,
84,-0.350459,0.292661,-0.098165,-0.562113,3.016862,2.434807,-46.862358,123.892251,15.950662,
85,-0.366055,0.244037,-0.099083,-0.297981,2.810032,2.138083,-71.850914,110.548236,39.554462,
86,-0.366055,0.244037,-0.099083,-0.114712,2.476805,1.920093,-91.363388,91.098706,57.367462,
87,-0.36055,0.241284,-0.111927,-0.018954,2.03669,1.853946,-105.273894,77.251143,73.66982,
88,-0.36055,0.241284,-0.111927,0.008975,1.594437,1.849393,-110.057597,70.390305,91.860481,
89,-0.36055,0.241284,-0.111927,0.009241,1.217119,1.86439,-106.406876,69.19438,112.442995,
90,-0.349541,0.250459,-0.114679,-0.026668,0.92558,1.857963,-96.524752,71.712118,129.563617,
91,-0.349541,0.250459,-0.114679,-0.054863,0.663702,1.852875,-78.334091,77.251143,141.082271,
92,-0.349541,0.250459,-0.114679,-0.077207,0.488404,1.788335,-50.513079,81.468355,142.844688,
93,-0.341284,0.266055,-0.117431,-0.070291,0.377774,1.673448,-14.068813,84.552585,139.886345,
94,-0.341284,0.266055,-0.117431,-0.050341,0.33582,1.559097,25.711458,85.433794,131.263091,
95,-0.33211,0.280734,-0.118349,-0.014964,0.345173,1.432427,65.491728,84.300811,119.303832,
96,-0.33211,0.280734,-0.118349,-0.015762,0.391135,1.308703,102.817203,82.09779,105.519213,
97,-0.33211,0.280734,-0.118349,-0.025338,0.438701,1.22381,133.030066,76.118161,93.622898,
98,-0.322018,0.289908,-0.122936,-0.033584,0.478784,1.169179,152.731371,68.564945,87.517382,
99,-0.322018,0.289908,-0.122936,-0.0272,0.492145,1.135168,159.403378,64.599507,88.272704,
100,-0.313761,0.282569,-0.125688,-0.031722,0.468095,1.119368,156.948583,64.914224,96.644185,
101,-0.313761,0.282569,-0.125688,-0.046883,0.420262,1.095265,151.409558,66.802528,108.666387,
102,-0.313761,0.282569,-0.125688,-0.072153,0.351586,1.054024,147.255289,69.068493,120.625645,
103,-0.310092,0.274312,-0.133028,-0.086782,0.270885,1.000196,145.492872,71.963892,131.07426,
104,-0.310092,0.274312,-0.133028,-0.104604,0.188581,0.925212,146.122307,73.91514,138.627476,
105,-0.310092,0.274312,-0.133028,-0.111254,0.097992,0.845675,148.010611,75.55167,144.166501,
106,-0.299083,0.269725,-0.137615,-0.101678,-0.001147,0.797471,151.598388,77.251143,146.747183,
107,-0.299083,0.269725,-0.137615,-0.114712,-0.086658,0.708293,156.507978,78.761786,147.250731,
108,-0.290826,0.261468,-0.142202,-0.117106,-0.179117,0.643217,161.79523,78.447069,144.984766,
109,-0.290826,0.261468,-0.142202,-0.102476,-0.270507,0.578409,168.467237,77.314087,140.767554,
110,-0.290826,0.261468,-0.142202,-0.090506,-0.357889,0.527527,175.516905,77.1882,136.235624,
111,-0.284404,0.26055,-0.145872,-0.090506,-0.419617,0.464058,179.671174,76.055217,131.011317,
112,-0.284404,0.26055,-0.145872,-0.09423,-0.496577,0.419603,182.440686,74.166913,124.842857,
113,-0.284404,0.26055,-0.145872,-0.080664,-0.562047,0.376219,184.643707,71.082684,117.856133,
114,-0.273394,0.250459,-0.150459,-0.084122,-0.605337,0.349707,186.406124,68.061397,109.988199,
115,-0.273394,0.250459,-0.150459,-0.062045,-0.673478,0.353189,189.679185,65.228941,102.18321,
116,-0.265138,0.240367,-0.155963,-0.059651,-0.725052,0.324802,193.95934,62.270598,92.426973,
117,-0.265138,0.240367,-0.155963,-0.048745,-0.782238,0.319713,199.498365,61.074673,83.048396,
118,-0.265138,0.240367,-0.155963,-0.041829,-0.819115,0.306323,204.093238,60.634068,74.425141,
119,-0.256881,0.230275,-0.16055,-0.035978,-0.852517,0.300164,207.995733,61.074673,66.305434,
120,-0.256881,0.230275,-0.16055,-0.042095,-0.878705,0.284364,209.317546,61.263503,58.185727,
121,-0.251376,0.215596,-0.163303,-0.021614,-0.912375,0.248746,207.806903,60.822899,51.639607,
122,-0.251376,0.215596,-0.163303,-0.002728,-0.946847,0.220627,204.659729,59.94169,46.100582,
123,-0.251376,0.215596,-0.163303,0.018285,-0.977577,0.17885,199.498365,59.186369,41.505709,
124,-0.247706,0.2,-0.166972,0.045683,-0.998688,0.140822,191.252771,58.053386,37.036723,
125,-0.247706,0.2,-0.166972,0.07175,-1.029419,0.110561,181.370647,56.353913,33.386002,
126,-0.247706,0.2,-0.166972,0.104467,-1.060684,0.061285,170.040824,54.087948,29.924111,
127,-0.244037,0.182569,-0.169725,0.130534,-1.086871,0.017634,157.515074,50.626057,26.021617,
128,-0.244037,0.182569,-0.169725,0.15607,-1.128024,-0.015306,143.856342,45.653524,22.056178,
129,-0.236697,0.169725,-0.17156,0.177349,-1.161694,-0.043693,130.449384,40.366272,17.020701,
130,-0.236697,0.169725,-0.17156,0.193575,-1.196165,-0.069669,116.475935,34.764304,12.803489,
131,-0.236697,0.169725,-0.17156,0.197831,-1.219948,-0.094843,101.369503,28.092297,8.46039,
132,-0.233028,0.156881,-0.170642,0.21512,-1.23999,-0.116535,86.388958,20.476137,4.117291,
133,-0.233028,0.156881,-0.170642,0.214854,-1.259764,-0.11707,71.911961,12.671148,-0.666413,
134,-0.233028,0.156881,-0.170642,0.228154,-1.27366,-0.104484,58.316173,5.180875,-4.820681,
135,-0.23211,0.147706,-0.169725,0.2364,-1.291564,-0.104216,45.853366,-2.498227,-10.359706,
136,-0.23211,0.147706,-0.169725,0.230814,-1.299313,-0.089487,34.775317,-9.233178,-16.213449,
137,-0.23211,0.141284,-0.16789,0.235868,-1.308933,-0.077971,25.459684,-15.212807,-20.871265,
138,-0.23211,0.141284,-0.16789,0.227622,-1.310269,-0.04396,16.773485,-21.06655,-25.340251,
139,-0.23211,0.141284,-0.16789,0.224696,-1.307597,-0.042354,7.77257,-27.172066,-29.431576,
140,-0.231193,0.13945,-0.170642,0.23241,-1.318286,-0.033784,-1.354233,-32.081656,-33.082297,
141,-0.231193,0.13945,-0.170642,0.23108,-1.330311,-0.030838,-9.096279,-36.361812,-36.858905,
142,-0.23211,0.134862,-0.169725,0.211929,-1.326837,-0.032177,-17.027155,-39.383098,-40.383739,
143,-0.23211,0.134862,-0.169725,0.205545,-1.327639,-0.021197,-26.028071,-42.719102,-43.342082,
144,-0.23211,0.134862,-0.169725,0.187191,-1.304123,-0.001112,-38.239103,-47.062201,-46.048651,
145,-0.23578,0.13578,-0.165138,0.191713,-1.291296,0.008261,-52.464326,-50.083487,-47.559294,
146,-0.23578,0.13578,-0.165138,0.189585,-1.27553,0.012546,-66.941323,-51.59413,-47.999899,
147,-0.23578,0.13578,-0.165138,0.17203,-1.24667,0.03879,-81.544207,-52.475339,-47.874012,
148,-0.23578,0.13578,-0.166055,0.167774,-1.223956,0.053519,-95.643544,-53.797152,-47.811068,
149,-0.23578,0.13578,-0.166055,0.160858,-1.191355,0.071462,-108.421067,-54.67836,-47.811068,
150,-0.241284,0.137615,-0.165138,0.168306,-1.158487,0.084316,-119.687947,-55.685456,-47.748125,
151,-0.241284,0.137615,-0.165138,0.163518,-1.125084,0.099581,-130.514223,-56.440777,-47.559294,
152,-0.241284,0.137615,-0.165138,0.16405,-1.085535,0.092082,-139.200422,-57.76259,-47.999899,
153,-0.248624,0.143119,-0.165138,0.158198,-1.049193,0.084316,-147.320129,-59.336177,-48.503446,
154,-0.248624,0.143119,-0.165138,0.155804,-1.012316,0.069855,-155.69161,-60.720933,-48.692277,
155,-0.248624,0.143119,-0.165138,0.157932,-0.97544,0.05218,-166.95849,-64.11988,-49.006994,
156,-0.249541,0.156881,-0.166972,0.157134,-0.938296,0.039861,-179.610126,-66.322901,-49.006994,
157,-0.249541,0.156881,-0.166972,0.148356,-0.898747,0.005315,-196.919579,-69.407131,-48.062842,
158,-0.255046,0.16789,-0.161468,0.141706,-0.849044,-0.001648,-219.138623,-72.806078,-46.363368,
159,-0.255046,0.16789,-0.161468,0.146494,-0.806288,0.026471,-243.057139,-77.275064,-43.530913,
160,-0.255046,0.16789,-0.161468,0.14809,-0.766739,0.073872,-265.968561,-82.310541,-40.194909,
161,-0.258716,0.180734,-0.16055,0.146494,-0.723983,0.117791,-285.355148,-87.220132,-36.544188,
162,-0.258716,0.180734,-0.16055,0.144632,-0.685503,0.170548,-301.657506,-91.752061,-34.529997,
163,-0.266055,0.200917,-0.156881,0.129471,-0.651566,0.186616,-315.190351,-97.794634,-34.341167,
164,-0.266055,0.200917,-0.156881,0.117767,-0.593045,0.204023,-326.268401,-105.033132,-35.474149,
165,-0.266055,0.200917,-0.156881,0.097817,-0.519826,0.20081,-334.513995,-113.656387,-37.67717,
166,-0.273394,0.222936,-0.153211,0.053928,-0.413738,0.214468,-341.87838,-122.594359,-41.013174,
167,-0.273394,0.222936,-0.153211,-0.005388,-0.284937,0.214735,-347.983896,-132.287653,-44.223291,
168,-0.273394,0.222936,-0.153211,-0.099018,-0.109639,0.220091,-352.389939,-143.869251,-49.321711,
169,-0.282569,0.254128,-0.147706,-0.213129,0.06646,0.290255,-349.620426,-157.150322,-54.92368,
170,-0.282569,0.254128,-0.147706,-0.365278,0.211295,0.412105,-342.822532,-170.55728,-67.512373,
171,-0.29633,0.279817,-0.136697,-0.51982,0.38686,0.592871,-332.059199,-181.194725,-86.961904,
172,-0.29633,0.279817,-0.136697,-0.679682,0.546659,0.851566,-311.53963,-188.055563,-105.530226,
173,-0.29633,0.279817,-0.136697,-0.793262,0.709397,1.148558,-285.355148,-189.377376,-127.434552,
174,-0.312844,0.300917,-0.118349,-0.945144,0.870532,1.457065,-249.288542,-183.901294,-148.961217,
175,-0.312844,0.300917,-0.118349,-1.044892,1.031934,1.78887,-204.283965,-170.809054,-170.865543,
176,-0.312844,0.300917,-0.118349,-1.131074,1.231282,2.09095,-153.110927,-151.107749,-187.545561,
177,-0.327523,0.320183,-0.101835,-1.251569,1.4162,2.287516,-100.49019,-123.475568,-203.155541,
178,-0.327523,0.320183,-0.101835,-1.326313,1.5605,2.443912,-52.338439,-95.528669,-218.261972,
179,-0.347706,0.327523,-0.088073,-1.343603,1.694646,2.514611,-12.558169,-68.085318,-227.137001,
180,-0.347706,0.327523,-0.088073,-1.335357,1.833601,2.559602,17.151146,-41.523176,-226.94817,
181,-0.347706,0.327523,-0.088073,-1.297586,1.994202,2.61584,39.873737,-16.282846,-220.464994,
182,-0.361468,0.315596,-0.078899,-1.20502,2.188472,2.646369,60.582137,7.824501,-210.331096,
183,-0.361468,0.315596,-0.078899,-1.067235,2.366443,2.639139,78.458081,26.51871,-196.105872,
184,-0.372477,0.300917,-0.078899,-0.87572,2.484822,2.577277,90.102623,38.477969,-179.299967,
185,-0.372477,0.300917,-0.078899,-0.663457,2.53506,2.473638,91.046775,48.989527,-153.36726,
186,-0.372477,0.300917,-0.078899,-0.478325,2.509406,2.287784,74.303813,57.675725,-119.377788,
187,-0.374312,0.280734,-0.082569,-0.36182,2.335979,2.135405,40.503172,67.306076,-79.723405,
188,-0.374312,0.280734,-0.082569,-0.259944,2.100289,2.021322,6.073096,76.055217,-36.04064,
189,-0.374312,0.280734,-0.082569,-0.197702,1.862728,1.886082,-26.594562,78.635899,8.712164,
190,-0.376147,0.266055,-0.088073,-0.176156,1.615013,1.791013,-59.136334,82.09779,48.744208,
191,-0.376147,0.266055,-0.088073,-0.153813,1.374781,1.747629,-82.740133,84.111981,81.47481,
192,-0.36789,0.263303,-0.09633,-0.135725,1.160468,1.72192,-91.615162,83.419603,107.785178,
193,-0.36789,0.263303,-0.09633,-0.120564,0.96887,1.699693,-86.579685,82.916055,127.99003,
194,-0.36789,0.263303,-0.09633,-0.105668,0.810407,1.646668,-69.647892,84.111981,142.341141,
195,-0.361468,0.275229,-0.099083,-0.112318,0.699243,1.596857,-43.463411,84.489642,149.579639,
196,-0.361468,0.275229,-0.099083,-0.116574,0.634842,1.524818,-9.725713,83.671377,150.775565,
197,-0.361468,0.275229,-0.099083,-0.133331,0.622283,1.483845,26.84444,82.790168,147.502505,
198,-0.350459,0.288073,-0.100917,-0.166846,0.654884,1.455726,65.17701,81.090695,140.767554,
199,-0.350459,0.288073,-0.100917,-0.213927,0.707794,1.455458,102.187768,78.950617,132.081356,
200,-0.343119,0.299083,-0.105505,-0.259146,0.750549,1.485719,130.827045,78.258239,124.465196,
201,-0.343119,0.299083,-0.105505,-0.281224,0.768453,1.49054,150.71718,81.342468,123.772818,
202,-0.343119,0.299083,-0.105505,-0.301173,0.778608,1.483577,162.739382,87.699758,128.619465,
203,-0.33211,0.298165,-0.111009,-0.291597,0.75242,1.4576,168.089576,94.560596,136.172681,
204,-0.33211,0.298165,-0.111009,-0.309951,0.696036,1.353426,168.215463,103.561512,146.243635,
205,-0.322018,0.293578,-0.116514,-0.323517,0.620412,1.25541,161.858173,109.981745,155.559268,
206,-0.322018,0.293578,-0.116514,-0.296651,0.511118,1.166233,153.109031,114.576618,162.294219,
207,-0.322018,0.293578,-0.116514,-0.251432,0.373499,1.048936,147.444119,118.667943,166.763205,
208,-0.311927,0.288991,-0.124771,-0.209405,0.225992,0.924408,148.577102,121.87806,166.889092,
209,-0.311927,0.288991,-0.124771,-0.204618,0.10975,0.800952,155.941487,122.507495,163.427201,
210,-0.311927,0.288991,-0.124771,-0.182274,0.001525,0.687404,167.019537,119.549152,155.936929,
211,-0.297248,0.281651,-0.13578,-0.145567,-0.087727,0.582159,180.426495,112.940088,146.306579,
212,-0.297248,0.281651,-0.13578,-0.110988,-0.158808,0.510388,194.399945,105.953363,134.410264,
213,-0.285321,0.279817,-0.140367,-0.077207,-0.239242,0.454417,207.114525,99.155469,122.702779,
214,-0.285321,0.279817,-0.140367,-0.032786,-0.315935,0.420674,221.02503,92.987009,110.869408,
215,-0.285321,0.279817,-0.140367,-0.013102,-0.381672,0.372202,234.431989,88.014476,99.854301,
216,-0.273394,0.272477,-0.150459,-0.005654,-0.42897,0.340334,248.657212,83.419603,89.342743,
217,-0.273394,0.272477,-0.150459,0.006315,-0.458899,0.30793,262.06417,80.272429,80.845375,
218,-0.273394,0.272477,-0.150459,0.014295,-0.476536,0.279275,276.100563,78.447069,73.732763,
219,-0.26422,0.254128,-0.155963,0.027063,-0.499784,0.245265,287.115669,74.544574,66.368378,
220,-0.26422,0.254128,-0.155963,0.051268,-0.531851,0.224108,293.535902,71.460344,58.563388,
221,-0.255046,0.236697,-0.16055,0.065632,-0.574873,0.213932,294.354168,71.20857,53.590854,
222,-0.255046,0.236697,-0.16055,0.065898,-0.62137,0.192508,292.465864,72.970988,51.639607,
223,-0.255046,0.236697,-0.16055,0.07042,-0.676952,0.141894,286.423291,73.852196,51.387833,
224,-0.250459,0.212844,-0.165138,0.078932,-0.734405,0.086191,276.289393,73.159818,51.639607,
225,-0.250459,0.212844,-0.165138,0.099147,-0.799875,0.023525,263.448926,71.460344,52.520816,
226,-0.241284,0.188991,-0.17156,0.122023,-0.860534,-0.035659,248.657212,67.55785,52.394929,
227,-0.241284,0.188991,-0.17156,0.148356,-0.926271,-0.070473,231.410702,63.970072,51.828437,
228,-0.241284,0.188991,-0.17156,0.162188,-0.990939,-0.109304,212.84238,60.948786,50.632512,
229,-0.231193,0.166055,-0.170642,0.174157,-1.056942,-0.136084,190.434506,55.787421,47.611225,
230,-0.231193,0.166055,-0.170642,0.187457,-1.118136,-0.165274,166.138329,51.444322,44.715826,
231,-0.231193,0.166055,-0.170642,0.218312,-1.202846,-0.167952,140.142677,46.786506,42.009257,
232,-0.233028,0.151376,-0.172477,0.235336,-1.256558,-0.184824,113.517592,42.12869,40.43567,
233,-0.233028,0.151376,-0.172477,0.251296,-1.328708,-0.181878,87.396054,38.226195,39.743292,
234,-0.22844,0.138532,-0.170642,0.241986,-1.371196,-0.207587,62.155724,33.820152,38.484423,
235,-0.22844,0.138532,-0.170642,0.236134,-1.417158,-0.185092,40.314341,28.281127,35.903741,
236,-0.22844,0.138532,-0.170642,0.228154,-1.45163,-0.185092,23.256662,20.853798,31.308868,
237,-0.222936,0.131193,-0.168807,0.246774,-1.484231,-0.182949,9.849704,14.118847,24.762747,
238,-0.222936,0.131193,-0.168807,0.25236,-1.50641,-0.196607,-1.480119,8.390992,17.020701,
239,-0.222936,0.131193,-0.168807,0.254222,-1.516298,-0.198749,-10.543978,1.215437,8.46039,
240,-0.222018,0.131193,-0.170642,0.257945,-1.521375,-0.188305,-17.215986,-5.771288,-0.225808,
241,-0.222018,0.131193,-0.170642,0.256881,-1.517901,-0.157776,-23.510332,-12.128578,-8.030798,
242,-0.224771,0.129358,-0.16789,0.25635,-1.492515,-0.136887,-27.853431,-18.108207,-14.891636,
243,-0.224771,0.129358,-0.16789,0.256615,-1.462051,-0.109036,-32.825965,-23.521345,-20.934208,
244,-0.224771,0.129358,-0.16789,0.254754,-1.420365,-0.087076,-37.672612,-28.367992,-24.836703,
245,-0.222936,0.133028,-0.168807,0.257945,-1.382954,-0.072883,-42.771033,-33.214638,-27.983877,
246,-0.222936,0.133028,-0.168807,0.266191,-1.351421,-0.075561,-48.121227,-37.24302,-30.438672,
247,-0.224771,0.134862,-0.168807,0.265659,-1.320156,-0.084666,-54.415574,-42.593215,-33.082297,
248,-0.224771,0.134862,-0.168807,0.266723,-1.303054,-0.110643,-60.52109,-47.628692,-35.096488,
249,-0.224771,0.134862,-0.168807,0.272575,-1.284616,-0.106626,-68.577854,-52.475339,-38.054831,
250,-0.227523,0.138532,-0.17156,0.257147,-1.28515,-0.13287,-77.578769,-57.95142,-40.887287,
251,-0.227523,0.138532,-0.17156,0.25369,-1.264307,-0.124033,-89.349197,-61.853915,-42.2091,
252,-0.227523,0.138532,-0.17156,0.247306,-1.258161,-0.114392,-101.874947,-66.008184,-42.586761,
253,-0.231193,0.142202,-0.170642,0.239326,-1.228232,-0.115731,-114.715414,-70.47717,-43.84563,
254,-0.231193,0.142202,-0.170642,0.240922,-1.220215,-0.116802,-127.17822,-74.568495,-45.733934,
255,-0.234862,0.148624,-0.16789,0.220972,-1.20819,-0.125104,-139.8928,-78.156273,-48.629333,
256,-0.234862,0.148624,-0.16789,0.205811,-1.186545,-0.147867,-153.425645,-81.995824,-52.405941,
257,-0.234862,0.148624,-0.16789,0.178679,-1.149401,-0.173041,-168.343246,-85.898319,-55.427227,
258,-0.243119,0.156881,-0.16789,0.15474,-1.1168,-0.158044,-187.47806,-92.066779,-59.581496,
259,-0.243119,0.156881,-0.16789,0.143036,-1.094888,-0.111446,-205.039286,-98.361125,-64.302256,
260,-0.243119,0.156881,-0.16789,0.13745,-1.069235,-0.062171,-218.949792,-103.90015,-68.897129,
261,-0.250459,0.165138,-0.163303,0.121225,-1.044383,-0.04396,-231.727316,-108.054419,-74.247324,
262,-0.250459,0.165138,-0.163303,0.085582,-1.01392,-0.036998,-245.134274,-113.152839,-81.359935,
263,-0.250459,0.165138,-0.163303,0.068824,-0.976509,-0.021465,-255.519946,-119.195412,-87.654282,
264,-0.250459,0.165138,-0.163303,0.057652,-0.928141,-0.00995,-265.276183,-124.356776,-92.437985,
265,-0.250459,0.165138,-0.163303,0.040097,-0.854388,-0.013699,-277.801932,-130.336405,-97.221688,
266,-0.266972,0.200917,-0.158716,0.033447,-0.762998,-0.018252,-290.516512,-137.889621,-101.25007,
267,-0.266972,0.200917,-0.158716,0.029191,-0.642213,-0.008611,-301.846336,-147.016424,-103.578978,
268,-0.278899,0.215596,-0.152294,0.021211,-0.502723,-0.01477,-311.161969,-157.968587,-105.782,
269,-0.278899,0.215596,-0.152294,-0.00193,-0.342657,-0.015306,-320.918206,-171.123771,-107.040869,
270,-0.278899,0.215596,-0.152294,-0.048479,-0.160144,-0.01236,-330.422669,-186.607863,-108.110908,
271,-0.289908,0.237615,-0.144954,-0.120032,0.026911,0.022722,-335.395203,-204.924412,-107.859134,
272,-0.289908,0.237615,-0.144954,-0.211799,0.192856,0.102795,-333.632786,-223.178017,-104.52313,
273,-0.289908,0.237615,-0.144954,-0.37246,0.39167,0.202684,-327.52727,-239.795092,-104.019583,
274,-0.308257,0.259633,-0.13211,-0.62409,0.628696,0.363633,-315.00152,-252.950276,-107.41853,
275,-0.308257,0.259633,-0.13211,-0.916683,0.890841,0.675889,-286.614017,-260.692322,-120.636658,
276,-0.32844,0.280734,-0.114679,-1.208212,1.158598,1.181765,-239.154645,-261.825305,-144.366344,
277,-0.32844,0.280734,-0.114679,-1.427657,1.399365,1.825559,-167.336151,-253.453824,-172.376186,
278,-0.32844,0.280734,-0.114679,-1.583263,1.656433,2.476583,-78.208204,-236.207314,-201.644897,
279,-0.346789,0.297248,-0.097248,-1.721314,1.8972,2.977104,17.717637,-210.400493,-221.723863,
280,-0.346789,0.297248,-0.097248,-1.850852,2.087195,3.328191,109.174493,-164.892368,-232.864856,
281,-0.346789,0.297248,-0.097248,-1.884634,2.218936,3.433169,170.984975,-113.278726,-232.550139,
282,-0.369725,0.295413,-0.079817,-1.838883,2.320748,3.373985,186.469068,-63.175728,-212.282343,
283,-0.369725,0.295413,-0.079817,-1.762543,2.450885,3.258027,153.297862,-20.500058,-170.99143,
284,-0.387156,0.274312,-0.068807,-1.617576,2.594383,3.140998,91.487379,12.104657,-125.105644,
285,-0.387156,0.274312,-0.068807,-1.363286,2.668938,3.015132,32.698182,36.967325,-87.213677,
286,-0.387156,0.274312,-0.068807,-1.055797,2.626717,2.80705,-10.481035,54.213835,-53.035376,
287,-0.395413,0.249541,-0.07156,-0.833959,2.466384,2.520503,-43.589298,72.278609,-21.123039,
288,-0.395413,0.249541,-0.07156,-0.696174,2.228823,2.231813,-75.06103,74.041026,11.54462,
289,-0.397248,0.237615,-0.074312,-0.521416,1.949576,2.029623,-105.273894,67.93551,41.757483,
290,-0.397248,0.237615,-0.074312,-0.412891,1.644141,1.915005,-127.618824,64.85128,68.634343,
291,-0.397248,0.237615,-0.074312,-0.35118,1.350998,1.878584,-139.766913,63.970072,92.364029,
292,-0.389908,0.246789,-0.077064,-0.320591,1.093128,1.88876,-139.703969,63.403581,112.128277,
293,-0.389908,0.246789,-0.077064,-0.305695,0.866256,1.914469,-128.500033,64.914224,127.234709,
294,-0.389908,0.246789,-0.077064,-0.299577,0.691493,1.917683,-106.343933,69.446153,136.802116,
295,-0.385321,0.26055,-0.077982,-0.293991,0.543452,1.875638,-75.249861,76.432878,140.893441,
296,-0.385321,0.26055,-0.077982,-0.284948,0.456605,1.806277,-36.099025,81.90896,138.753363,
297,-0.377064,0.278899,-0.077982,-0.298513,0.419461,1.698353,5.128944,87.510928,132.396073,
298,-0.377064,0.278899,-0.077982,-0.288406,0.410375,1.59766,45.664536,90.658101,122.073345,
299,-0.377064,0.278899,-0.077982,-0.287874,0.429615,1.504466,84.563598,90.343384,110.554691,
300,-0.36789,0.288991,-0.083486,-0.281756,0.460079,1.385026,117.923634,89.147458,100.420793,
301,-0.36789,0.288991,-0.083486,-0.271116,0.473974,1.332269,143.226907,86.944437,93.874672,
302,-0.36789,0.288991,-0.083486,-0.267126,0.462484,1.276299,158.396282,85.496737,91.356934,
303,-0.357798,0.294495,-0.088073,-0.251698,0.426676,1.224346,166.390103,86.189115,92.615803,
304,-0.357798,0.294495,-0.088073,-0.238665,0.356931,1.156592,172.684449,87.699758,95.888863,
305,-0.357798,0.294495,-0.088073,-0.238133,0.284514,1.076519,178.915852,89.336289,99.917245,
306,-0.357798,0.294495,-0.088073,-0.233079,0.221182,0.980111,185.461973,89.588062,101.679662,
307,-0.357798,0.294495,-0.088073,-0.232015,0.152773,0.916106,192.574584,88.329193,100.672567,
308,-0.338532,0.282569,-0.10367,-0.220577,0.087571,0.851031,199.498365,87.385041,96.958902,
309,-0.338532,0.282569,-0.10367,-0.182806,0.004197,0.793186,205.352108,88.014476,93.559955,
310,-0.33211,0.273394,-0.111927,-0.153813,-0.071694,0.697581,206.29626,89.147458,92.049312,
311,-0.33211,0.273394,-0.111927,-0.145301,-0.147051,0.63438,202.645539,90.406327,93.371125,
312,-0.33211,0.273394,-0.111927,-0.147961,-0.209581,0.578141,196.665909,90.343384,93.748785,
313,-0.323853,0.263303,-0.118349,-0.151419,-0.271309,0.564216,191.504545,90.217497,92.426973,
314,-0.323853,0.263303,-0.118349,-0.152217,-0.338916,0.546809,188.86092,88.895684,89.028025,
315,-0.323853,0.263303,-0.118349,-0.134395,-0.396369,0.526724,189.553298,87.385041,84.559039,
316,-0.312844,0.250459,-0.123853,-0.115244,-0.445805,0.5211,193.266962,87.259154,80.782431,
317,-0.312844,0.250459,-0.123853,-0.10886,-0.486423,0.506371,198.743044,87.762702,76.502276,
318,-0.304587,0.242202,-0.131193,-0.087314,-0.522498,0.469146,204.470899,88.518023,72.159177,
319,-0.304587,0.242202,-0.131193,-0.084654,-0.56178,0.433261,208.813998,90.783988,67.879021,
320,-0.304587,0.242202,-0.131193,-0.068429,-0.607475,0.397108,211.583511,92.861123,64.03947,
321,-0.295413,0.227523,-0.137615,-0.058853,-0.652101,0.355063,212.716493,93.742331,59.192823,
322,-0.295413,0.227523,-0.137615,-0.048479,-0.691115,0.321856,212.338832,94.371766,54.849724,
323,-0.295413,0.227523,-0.137615,-0.038903,-0.742155,0.294005,211.520567,95.945352,50.128964,
324,-0.293578,0.215596,-0.143119,-0.034648,-0.790255,0.286506,210.513472,96.763617,45.471147,
325,-0.293578,0.215596,-0.143119,-0.018688,-0.829804,0.267224,208.247507,98.400148,41.69454,
326,-0.293578,0.215596,-0.143119,-0.00858,-0.865344,0.228929,203.274973,99.596073,38.295592,
327,-0.293578,0.215596,-0.143119,0.003124,-0.887791,0.174297,193.95934,99.596073,36.784949,
328,-0.293578,0.215596,-0.143119,0.028127,-0.931081,0.118327,180.237665,97.393052,34.204267,
329,-0.276147,0.185321,-0.150459,0.058716,-0.968759,0.072533,164.438855,93.994105,31.938302,
330,-0.276147,0.185321,-0.150459,0.095423,-1.00617,0.024329,147.444119,90.28044,29.420564,
331,-0.263303,0.168807,-0.153211,0.135854,-1.046254,-0.014235,129.253458,87.070324,27.972864,
332,-0.263303,0.168807,-0.153211,0.16538,-1.082863,-0.048245,110.370418,82.978999,26.462221,
333,-0.263303,0.168807,-0.153211,0.193575,-1.112257,-0.055744,90.291453,77.125256,24.951578,
334,-0.258716,0.157798,-0.157798,0.213791,-1.151539,-0.080114,71.408413,71.649175,23.629765,
335,-0.258716,0.157798,-0.157798,0.235336,-1.182003,-0.072883,53.7213,66.236037,23.00033,
336,-0.258716,0.157798,-0.157798,0.249168,-1.207389,-0.085202,38.174264,59.626973,20.923196,
337,-0.253211,0.151376,-0.161468,0.261669,-1.231706,-0.082524,25.20791,53.017909,18.783118,
338,-0.253211,0.151376,-0.161468,0.265393,-1.254153,-0.087612,14.003973,45.59058,15.258284,
339,-0.244954,0.146789,-0.165138,0.268585,-1.262971,-0.092165,3.744188,37.78559,11.166959,
340,-0.244954,0.146789,-0.165138,0.274437,-1.276065,-0.082256,-5.382614,29.036449,6.257369,
341,-0.244954,0.146789,-0.165138,0.281619,-1.28034,-0.077703,-13.502321,19.280212,0.025965,
342,-0.237615,0.145872,-0.16422,0.295717,-1.292633,-0.054137,-19.670781,11.475222,-8.030798,
343,-0.237615,0.145872,-0.16422,0.305026,-1.294503,-0.024143,-23.82505,5.054988,-14.954579,
344,-0.238532,0.146789,-0.163303,0.302366,-1.293167,-0.023875,-26.909279,-1.617019,-21.815417,
345,-0.238532,0.146789,-0.163303,0.303164,-1.288624,0.001566,-30.434114,-8.289026,-28.298594,
346,-0.238532,0.146789,-0.163303,0.296515,-1.262169,0.002905,-33.4554,-15.149864,-34.781771,
347,-0.234862,0.147706,-0.165138,0.299706,-1.238119,0.0096,-38.239103,-21.25538,-40.006078,
348,-0.234862,0.147706,-0.165138,0.3021,-1.210863,0.029149,-44.72228,-26.731462,-43.342082,
349,-0.234862,0.147706,-0.165138,0.312474,-1.181201,0.040932,-51.268401,-32.396373,-44.726838,
350,-0.237615,0.149541,-0.166055,0.311144,-1.147531,0.039861,-59.07339,-37.180077,-45.859821,
351,-0.237615,0.149541,-0.166055,0.30742,-1.112525,0.054055,-67.381928,-41.334346,-46.237482,
352,-0.23945,0.151376,-0.166055,0.291993,-1.071372,0.059946,-76.50873,-45.488614,-46.048651,
353,-0.23945,0.151376,-0.166055,0.291727,-1.024609,0.064231,-86.390854,-49.454053,-45.356273,
354,-0.23945,0.151376,-0.166055,0.288003,-0.995214,0.068248,-96.587696,-52.853,-44.789782,
355,-0.242202,0.156881,-0.163303,0.281619,-0.957001,0.084048,-107.854576,-56.31489,-43.530913,
356,-0.242202,0.156881,-0.163303,0.280821,-0.927607,0.082709,-119.310287,-59.39912,-42.020269,
357,-0.242202,0.156881,-0.163303,0.281087,-0.907565,0.077086,-131.710149,-62.357463,-39.943135,
358,-0.248624,0.163303,-0.162385,0.272043,-0.892334,0.082977,-144.424729,-65.189919,-37.740114,
359,-0.248624,0.163303,-0.162385,0.256084,-0.878438,0.101456,-156.887535,-68.84064,-35.977697,
360,-0.251376,0.17156,-0.162385,0.242518,-0.877102,0.106544,-167.776755,-73.057852,-35.725923,
361,-0.251376,0.17156,-0.162385,0.221504,-0.857327,0.120469,-177.658879,-76.83446,-35.977697,
362,-0.251376,0.17156,-0.162385,0.205279,-0.84557,0.130914,-186.21919,-80.422237,-37.928944,
363,-0.259633,0.179817,-0.161468,0.190915,-0.830872,0.131985,-194.842445,-83.884128,-38.93604,
364,-0.259633,0.179817,-0.161468,0.164848,-0.818313,0.129039,-205.29106,-87.786623,-41.139061,
365,-0.261468,0.194495,-0.159633,0.153942,-0.827399,0.100384,-218.949792,-92.444439,-44.852725,
366,-0.261468,0.194495,-0.159633,0.13346,-0.822321,0.091815,-235.62981,-98.172295,-49.321711,
367,-0.261468,0.194495,-0.159633,0.129471,-0.798538,0.085387,-253.191037,-104.08898,-54.105415,
368,-0.269725,0.213761,-0.155963,0.131864,-0.760326,0.10949,-268.989847,-112.775179,-58.700288,
369,-0.269725,0.213761,-0.155963,0.1308,-0.692718,0.087798,-281.137936,-122.531416,-61.973348,
370,-0.269725,0.213761,-0.155963,0.109787,-0.59251,0.06316,-292.46776,-132.791201,-64.994634,
371,-0.280734,0.233028,-0.149541,0.078932,-0.478406,0.064499,-302.979318,-146.890537,-69.085959,
372,-0.280734,0.233028,-0.149541,0.044885,-0.353079,0.025936,-313.994425,-161.493421,-72.044302,
373,-0.289908,0.250459,-0.141284,-0.014698,-0.201029,-0.002183,-328.156705,-177.355174,-73.869663,
374,-0.289908,0.250459,-0.141284,-0.075611,-0.081314,0.051377,-342.633702,-195.419949,-76.576232,
375,-0.289908,0.250459,-0.141284,-0.159133,0.072072,0.122612,-354.718847,-211.722306,-77.709214,
376,-0.30367,0.274312,-0.129358,-0.27617,0.211829,0.18367,-359.628437,-226.13636,-77.898045,
377,-0.30367,0.274312,-0.129358,-0.415019,0.350785,0.260529,-358.747229,-239.920979,-81.296992,
378,-0.30367,0.274312,-0.129358,-0.591372,0.520738,0.377558,-351.445787,-250.810198,-87.087791,
379,-0.322936,0.3,-0.116514,-0.770386,0.712069,0.515476,-337.912942,-255.782732,-95.711045,
380,-0.322936,0.3,-0.116514,-0.963764,0.936002,0.742304,-313.17616,-257.293375,-104.208413,
381,-0.341284,0.320183,-0.090826,-1.122296,1.171424,1.073306,-272.829399,-256.034506,-115.790011,
382,-0.341284,0.320183,-0.090826,-1.207946,1.371307,1.48438,-217.439149,-248.984838,-129.826403,
383,-0.341284,0.320183,-0.090826,-1.400525,1.582679,1.860641,-145.935372,-231.549498,-148.83533,
384,-0.36422,0.337615,-0.06422,-1.629014,1.830395,2.166202,-70.340271,-206.812716,-176.971059,
385,-0.36422,0.337615,-0.06422,-1.76866,2.006494,2.405081,-1.606006,-187.048468,-207.624527,
386,-0.384404,0.341284,-0.042202,-1.763607,2.136364,2.6378,56.616699,-169.487241,-227.011114,
387,-0.384404,0.341284,-0.042202,-1.690458,2.226418,2.838383,102.754259,-146.324046,-224.808093,
388,-0.384404,0.341284,-0.042202,-1.642845,2.349608,3.026111,133.155953,-115.292917,-206.23977,
389,-0.402752,0.329358,-0.027523,-1.585657,2.446876,3.168046,146.499967,-79.037481,-181.062384,
390,-0.402752,0.329358,-0.027523,-1.523946,2.500054,3.217857,146.122307,-39.194268,-154.626129,
391,-0.402752,0.329358,-0.027523,-1.423135,2.489899,3.099757,132.589462,2.348419,-127.182778,
392,-0.419266,0.308257,-0.022018,-1.281094,2.412672,2.871858,102.187768,37.344986,-94.074515,
393,-0.419266,0.308257,-0.022018,-1.091972,2.321282,2.589596,57.309077,64.725394,-53.727754,
394,-0.425688,0.288991,-0.025688,-0.9361,2.188472,2.314564,6.954305,88.580967,-11.870349,
395,-0.425688,0.288991,-0.025688,-0.85843,2.023329,2.081577,-39.246199,104.946268,25.077465,
396,-0.425688,0.288991,-0.025688,-0.782356,1.825317,1.898133,-78.774695,109.792915,56.926858,
397,-0.425688,0.278899,-0.033028,-0.68447,1.585619,1.80601,-109.491106,109.478197,83.866661,
398,-0.425688,0.278899,-0.033028,-0.60813,1.348593,1.777623,-125.793464,110.80001,108.91816,
399,-0.425688,0.278899,-0.033028,-0.578339,1.131074,1.748432,-125.91935,112.562427,130.696599,
400,-0.416514,0.283486,-0.034862,-0.572487,0.966198,1.72433,-109.302276,114.07307,147.124844,
401,-0.416514,0.283486,-0.034862,-0.552803,0.830983,1.677465,-79.278243,114.702505,155.748099,
402,-0.405505,0.299083,-0.044954,-0.53578,0.745205,1.643454,-40.127407,113.69541,155.811042,
403,-0.405505,0.299083,-0.044954,-0.510776,0.684278,1.605159,5.443662,114.261901,150.209074,
404,-0.405505,0.299083,-0.044954,-0.481517,0.661297,1.537137,52.588317,115.080166,142.089367,
405,-0.395413,0.313761,-0.048624,-0.466887,0.681071,1.474204,99.040595,115.961374,133.340225,
406,-0.395413,0.313761,-0.048624,-0.444544,0.705121,1.428142,140.205621,116.464922,125.472292,
407,-0.382569,0.322936,-0.055046,-0.433638,0.731844,1.367084,174.132149,117.472018,121.63274,
408,-0.382569,0.322936,-0.055046,-0.417147,0.737188,1.299865,194.588775,119.675039,122.136288,
409,-0.382569,0.322936,-0.055046,-0.400389,0.713673,1.240414,203.715577,121.87806,126.731161,
410,-0.372477,0.321101,-0.06422,-0.362884,0.664236,1.154985,208.562224,124.458742,134.221434,
411,-0.372477,0.321101,-0.06422,-0.331497,0.593957,1.077858,211.079963,126.976481,141.145215,
412,-0.372477,0.321101,-0.06422,-0.325113,0.496955,0.985735,214.919514,130.060711,145.04771,
413,-0.358716,0.317431,-0.077064,-0.315005,0.386325,0.894415,220.8362,132.452562,145.362427,
414,-0.358716,0.317431,-0.077064,-0.330433,0.286384,0.818359,228.326472,132.263732,142.970575,
415,-0.343119,0.309174,-0.089908,-0.316335,0.183771,0.762656,234.683762,130.501315,138.627476,
416,-0.343119,0.309174,-0.089908,-0.303567,0.089708,0.717666,240.159844,129.557163,134.032603,
417,-0.343119,0.309174,-0.089908,-0.267924,0.000991,0.662499,244.62883,127.920633,129.123013,
418,-0.329358,0.302752,-0.102752,-0.2509,-0.077305,0.606261,247.838947,128.109463,124.71697,
419,-0.329358,0.302752,-0.102752,-0.232813,-0.160946,0.54547,250.230798,127.983576,119.555606,
420,-0.329358,0.302752,-0.102752,-0.207011,-0.241914,0.483608,251.363781,128.109463,114.457185,
421,-0.318349,0.288991,-0.112844,-0.182806,-0.316202,0.443973,253.000311,127.542972,107.848122,
422,-0.318349,0.288991,-0.112844,-0.16525,-0.383542,0.381308,255.203332,126.976481,101.176114,
423,-0.307339,0.277064,-0.125688,-0.151685,-0.431642,0.345155,257.972845,126.40999,93.497011,
424,-0.307339,0.277064,-0.125688,-0.128277,-0.474932,0.311412,260.994131,125.277007,86.887948,
425,-0.307339,0.277064,-0.125688,-0.105136,-0.505396,0.299628,264.267191,124.018138,81.034205,
426,-0.293578,0.259633,-0.13578,-0.066035,-0.539867,0.245265,268.862064,122.255721,74.676915,
427,-0.293578,0.259633,-0.13578,-0.038372,-0.570063,0.19224,273.079276,122.318664,69.893212,
428,-0.280734,0.244954,-0.143119,-0.020018,-0.597053,0.160372,274.904637,121.815117,65.550113,
429,-0.280734,0.244954,-0.143119,-0.004058,-0.623508,0.117524,274.715806,120.933908,61.395844,
430,-0.280734,0.244954,-0.143119,0.002326,-0.642748,0.072533,270.939198,119.360321,58.248671,
431,-0.272477,0.223853,-0.151376,0.026265,-0.687107,0.018169,262.253,116.527866,55.856819,
432,-0.272477,0.223853,-0.151376,0.048076,-0.720777,-0.027625,249.664307,113.003031,53.779685,
433,-0.272477,0.223853,-0.151376,0.072282,-0.776893,-0.064849,234.809649,109.037593,52.394929,
434,-0.261468,0.201835,-0.159633,0.100477,-0.838622,-0.111446,219.01084,104.25389,52.331985,
435,-0.261468,0.201835,-0.159633,0.122555,-0.88592,-0.150545,203.149086,100.351395,52.772589,
436,-0.250459,0.185321,-0.162385,0.1441,-0.962079,-0.172505,186.972616,95.064144,52.080211,
437,-0.250459,0.185321,-0.162385,0.1574,-1.032358,-0.232492,168.907841,88.518023,49.751303,
438,-0.250459,0.185321,-0.162385,0.167508,-1.117335,-0.275073,149.835971,82.727225,46.730017,
439,-0.240367,0.16422,-0.16422,0.175221,-1.210061,-0.321938,128.372249,74.733405,41.88337,
440,-0.240367,0.16422,-0.16422,0.185063,-1.307864,-0.361037,106.467924,65.040111,35.52608,
441,-0.240367,0.16422,-0.16422,0.204747,-1.409141,-0.398797,86.200128,55.346817,27.972864,
442,-0.23578,0.156881,-0.166055,0.211663,-1.500799,-0.407367,68.07241,44.079937,20.041987,
443,-0.23578,0.156881,-0.166055,0.23241,-1.579629,-0.409241,54.036017,32.246565,10.474581,
444,-0.227523,0.151376,-0.170642,0.235336,-1.641625,-0.400404,43.713289,21.483233,0.907174,
445,-0.227523,0.151376,-0.170642,0.234538,-1.666477,-0.393173,34.901203,10.656957,-9.793215,
446,-0.227523,0.151376,-0.170642,0.236666,-1.704155,-0.377373,28.166253,0.774833,-19.927113,
447,-0.224771,0.143119,-0.169725,0.238528,-1.707629,-0.366393,21.305415,-9.799669,-29.431576,
448,-0.224771,0.143119,-0.169725,0.240922,-1.70656,-0.355949,13.374538,-18.485868,-38.117775,
449,-0.222936,0.138532,-0.168807,0.24704,-1.687587,-0.325152,4.49951,-26.290857,-46.426312,
450,-0.222936,0.138532,-0.168807,0.243848,-1.65071,-0.323277,-4.690236,-33.78113,-53.790697,
451,-0.222936,0.138532,-0.168807,0.245444,-1.609558,-0.304531,-14.698247,-41.208459,-59.266779,
452,-0.22844,0.136697,-0.16789,0.240124,-1.558786,-0.289534,-25.46158,-49.454053,-64.3652,
453,-0.22844,0.136697,-0.16789,0.25369,-1.520573,-0.27293,-36.665517,-56.692551,-69.27479,
454,-0.22844,0.136697,-0.16789,0.245444,-1.467396,-0.260879,-48.876549,-61.350367,-73.051398,
455,-0.229358,0.136697,-0.16789,0.23906,-1.414486,-0.249632,-62.661168,-65.189919,-75.065589,
456,-0.229358,0.136697,-0.16789,0.226292,-1.365317,-0.247221,-79.089412,-69.218301,-74.939702,
457,-0.23211,0.136697,-0.16422,0.211131,-1.307597,-0.220977,-97.657735,-73.5614,-74.18438,
458,-0.23211,0.136697,-0.16422,0.202353,-1.256825,-0.207587,-116.981378,-78.030386,-74.18438,
459,-0.23211,0.136697,-0.16422,0.186659,-1.217276,-0.185359,-135.801474,-81.429333,-74.058493,
460,-0.238532,0.141284,-0.166055,0.183733,-1.182003,-0.164471,-153.236814,-84.010015,-73.932606,
461,-0.238532,0.141284,-0.166055,0.161124,-1.147531,-0.152956,-169.287398,-86.401867,-74.624984,
462,-0.238532,0.141284,-0.166055,0.14809,-1.109585,-0.142511,-183.449678,-90.556135,-75.946797,
463,-0.244037,0.145872,-0.161468,0.14277,-1.074846,-0.129657,-196.793692,-95.151008,-78.149818,
464,-0.244037,0.145872,-0.161468,0.126279,-1.020066,-0.117606,-209.319442,-99.368221,-79.975179,
465,-0.252294,0.158716,-0.163303,0.108723,-0.962346,-0.107965,-221.908135,-104.151924,-81.234048,
466,-0.252294,0.158716,-0.163303,0.100477,-0.911574,-0.102877,-235.189206,-109.313288,-81.737596,
467,-0.252294,0.158716,-0.163303,0.093827,-0.866146,-0.082524,-250.043864,-113.971104,-83.059409,
468,-0.257798,0.172477,-0.159633,0.066164,-0.812968,-0.083863,-266.786826,-119.006582,-84.381222,
469,-0.257798,0.172477,-0.159633,0.056056,-0.773954,-0.081185,-285.669865,-124.482663,-86.521299,
470,-0.265138,0.190826,-0.156881,0.045417,-0.724251,-0.07449,-304.867622,-130.273462,-88.850208,
471,-0.265138,0.190826,-0.156881,0.035841,-0.634998,-0.041282,-322.365906,-139.966756,-89.98319,
472,-0.265138,0.190826,-0.156881,0.019615,-0.517955,-0.015038,-339.360641,-147.394085,-90.612625,
473,-0.274312,0.210092,-0.152294,-0.016294,-0.389688,-0.005933,-355.537112,-156.646774,-93.193307,
474,-0.274312,0.210092,-0.152294,-0.063109,-0.252871,0.032363,-368.94407,-168.228372,-96.277536,
475,-0.274312,0.210092,-0.152294,-0.152749,-0.066617,0.059679,-375.679021,-182.327708,-99.361766,
476,-0.292661,0.23211,-0.144954,-0.28149,0.122577,0.12288,-375.616077,-201.399578,-106.537321,
477,-0.292661,0.23211,-0.144954,-0.445076,0.370025,0.201078,-370.139996,-220.345561,-117.04888,
478,-0.307339,0.26055,-0.133028,-0.640049,0.576855,0.333907,-357.236586,-238.725053,-129.134025,
479,-0.307339,0.26055,-0.133028,-0.783952,0.760436,0.505567,-345.466157,-256.223336,-144.303401,
480,-0.307339,0.26055,-0.133028,-0.87439,0.921572,0.700259,-340.115963,-268.623199,-150.094199,
481,-0.325688,0.281651,-0.116514,-0.997545,1.139625,0.949582,-335.772864,-267.993764,-138.512602,
482,-0.325688,0.281651,-0.116514,-1.149161,1.430897,1.376724,-313.239103,-256.789827,-124.098548,
483,-0.325688,0.281651,-0.116514,-1.306895,1.689301,1.958388,-256.401154,-239.354487,-122.021414,
484,-0.350459,0.298165,-0.090826,-1.488037,1.852307,2.451946,-174.574649,-215.05831,-134.421276,
485,-0.350459,0.298165,-0.090826,-1.690458,2.017717,2.72055,-94.951165,-177.481061,-156.388546,
486,-0.37156,0.313761,-0.068807,-1.839947,2.131287,2.967463,-27.727545,-137.197243,-176.908116,
487,-0.37156,0.313761,-0.068807,-1.849257,2.2176,3.202324,27.347988,-100.312373,-184.713105,
488,-0.37156,0.313761,-0.068807,-1.799782,2.339186,3.402104,71.786074,-58.392025,-173.320338,
489,-0.387156,0.311009,-0.048624,-1.71227,2.485891,3.510028,99.85886,-13.765108,-150.975408,
490,-0.387156,0.311009,-0.048624,-1.561451,2.63126,3.457807,106.21615,29.728827,-125.0427,
491,-0.400917,0.297248,-0.047706,-1.342273,2.710892,3.258831,94.319835,70.453249,-95.018667,
492,-0.400917,0.297248,-0.047706,-1.063777,2.725055,2.948181,72.541396,99.910791,-62.791613,
493,-0.400917,0.297248,-0.047706,-0.764534,2.645423,2.524788,45.601593,118.982661,-24.081382,
494,-0.401835,0.281651,-0.055963,-0.569561,2.492304,2.079434,12.933934,125.780555,12.992319,
495,-0.401835,0.281651,-0.055963,-0.425392,2.261691,1.725134,-25.524523,119.737982,45.219374,
496,-0.401835,0.281651,-0.055963,-0.302503,1.956256,1.531513,-60.206373,106.07925,71.340912,
497,-0.393578,0.274312,-0.062385,-0.225365,1.633452,1.500181,-80.788886,94.434709,93.182294,
498,-0.393578,0.274312,-0.062385,-0.221641,1.340576,1.570077,-82.991907,86.692663,109.925256,
499,-0.386239,0.280734,-0.070642,-0.257018,1.111834,1.67934,-67.130154,83.041942,122.136288,
500,-0.386239,0.280734,-0.070642,-0.331497,0.94001,1.807884,-38.931481,82.853112,127.864144,
501,-0.386239,0.280734,-0.070642,-0.373258,0.809873,1.868407,-0.535968,87.133267,128.556522,
502,-0.377982,0.294495,-0.074312,-0.429382,0.714474,1.890099,42.895024,94.81237,127.108822,
503,-0.377982,0.294495,-0.074312,-0.429648,0.640454,1.837074,86.074241,101.547321,126.605274,
504,-0.377982,0.294495,-0.074312,-0.430446,0.620412,1.729418,124.469755,108.471102,128.682409,
505,-0.369725,0.30367,-0.077064,-0.405709,0.633773,1.599535,157.703904,114.639562,129.626561,
506,-0.369725,0.30367,-0.077064,-0.383365,0.653815,1.46858,185.524916,120.115643,130.507769,
507,-0.355046,0.305505,-0.083486,-0.35517,0.670383,1.330127,203.904408,123.388703,132.396073,
508,-0.355046,0.305505,-0.083486,-0.306759,0.639118,1.209349,214.353023,125.277007,136.613285,
509,-0.355046,0.305505,-0.083486,-0.266594,0.57445,1.08375,217.248423,127.291198,142.718801,
510,-0.344954,0.299083,-0.09633,-0.234675,0.487602,0.974219,216.367214,130.123654,148.5096,
511,-0.344954,0.299083,-0.09633,-0.220843,0.36949,0.860404,211.646454,132.641393,154.237456,
512,-0.33211,0.289908,-0.106422,-0.208075,0.239353,0.759175,205.981542,133.081997,158.706442,
513,-0.33211,0.289908,-0.106422,-0.19052,0.122042,0.65018,201.512556,130.123654,161.538897,
514,-0.33211,0.289908,-0.106422,-0.134129,0.004197,0.575731,198.176553,126.535877,162.483049,
515,-0.321101,0.281651,-0.120183,-0.109658,-0.086925,0.502086,194.714662,123.388703,160.909463,
516,-0.321101,0.281651,-0.120183,-0.083324,-0.18366,0.445312,193.078132,119.360321,156.629307,
517,-0.321101,0.281651,-0.120183,-0.070823,-0.273981,0.393091,193.266962,112.688314,148.887261,
518,-0.304587,0.275229,-0.127523,-0.060449,-0.362432,0.362562,196.036475,105.135098,138.186872,
519,-0.304587,0.275229,-0.127523,-0.059385,-0.437521,0.335246,200.631348,97.833656,126.542331,
520,-0.292661,0.26789,-0.13578,-0.041297,-0.50406,0.30793,205.729768,91.224592,114.646016,
521,-0.292661,0.26789,-0.13578,-0.044755,-0.556168,0.280614,210.891133,84.678472,102.623814,
522,-0.292661,0.26789,-0.13578,-0.02055,-0.614422,0.273652,216.052497,76.999369,91.419877,
523,-0.285321,0.256881,-0.141284,-0.008048,-0.654506,0.252228,223.102165,70.390305,80.719488,
524,-0.285321,0.256881,-0.141284,0.004985,-0.698597,0.239105,230.907154,64.47362,68.823173,
525,-0.285321,0.256881,-0.141284,0.012433,-0.728793,0.2142,240.474561,60.256408,56.171537,
526,-0.275229,0.244037,-0.148624,-0.003526,-0.765937,0.179386,247.776003,56.605687,44.526995,
527,-0.275229,0.244037,-0.148624,0.006315,-0.783841,0.175904,251.993215,52.892022,32.882454,
528,-0.26789,0.227523,-0.155046,0.019615,-0.805486,0.141894,251.17495,48.989527,23.126217,
529,-0.26789,0.227523,-0.155046,0.038501,-0.823925,0.137341,246.831851,47.101223,14.691793,
530,-0.26789,0.227523,-0.155046,0.045948,-0.849845,0.137609,240.663392,45.779411,9.341598,
531,-0.26422,0.208257,-0.156881,0.053396,-0.872826,0.137073,232.291911,44.961145,5.124386,
532,-0.26422,0.208257,-0.156881,0.057918,-0.89367,0.136002,221.843295,46.157071,2.29193,
533,-0.258716,0.188073,-0.159633,0.055258,-0.908634,0.122612,209.821094,47.730658,0.025965,
534,-0.258716,0.188073,-0.159633,0.06909,-0.925469,0.116988,196.540022,48.67481,-1.232904,
535,-0.258716,0.188073,-0.159633,0.086912,-0.943907,0.082174,183.070121,49.115414,-2.177056,
536,-0.255046,0.166055,-0.16055,0.105265,-0.95326,0.078425,169.033728,50.12251,-2.302943,
537,-0.255046,0.166055,-0.16055,0.131864,-0.981051,0.055394,155.43794,49.493075,-2.680604,
538,-0.255046,0.166055,-0.16055,0.14809,-1.004567,0.032363,143.415738,49.618962,-2.491773,
539,-0.250459,0.152294,-0.161468,0.185595,-1.032625,-0.008611,131.519423,48.989527,-2.114112,
540,-0.250459,0.152294,-0.161468,0.201821,-1.049193,-0.055208,120.189599,47.164167,-1.925282,
541,-0.246789,0.137615,-0.162385,0.217514,-1.069235,-0.120284,107.412076,44.331711,-2.61766,
542,-0.246789,0.137615,-0.162385,0.234272,-1.090612,-0.168488,91.487379,40.177442,-4.25419,
543,-0.246789,0.137615,-0.162385,0.262733,-1.134971,-0.210801,74.80736,35.016078,-6.394268,
544,-0.242202,0.125688,-0.161468,0.283481,-1.170779,-0.258201,56.679642,29.854714,-6.205438,
545,-0.242202,0.125688,-0.161468,0.298377,-1.212733,-0.282839,36.348903,24.756293,-4.694794,
546,-0.242202,0.125688,-0.161468,0.296249,-1.243196,-0.294087,14.759295,19.091381,-2.743547,
547,-0.23945,0.119266,-0.16055,0.284545,-1.263505,-0.279358,-8.089183,12.797035,-0.855243,
548,-0.23945,0.119266,-0.16055,0.277097,-1.280875,-0.250435,-28.92347,6.313858,0.844231,
549,-0.233945,0.115596,-0.161468,0.275235,-1.286754,-0.215353,-47.177075,-0.672867,1.096004,
550,-0.233945,0.115596,-0.161468,0.268585,-1.287021,-0.170095,-62.031733,-6.337779,0.214796,
551,-0.233945,0.115596,-0.161468,0.255552,-1.295038,-0.118677,-73.109783,-11.687973,-2.554717,
552,-0.23578,0.118349,-0.162385,0.250498,-1.304925,-0.082256,-80.096508,-16.408733,-7.023703,
553,-0.23578,0.118349,-0.162385,0.23241,-1.29958,-0.05253,-85.006098,-21.695984,-12.373897,
554,-0.234862,0.124771,-0.159633,0.23374,-1.303321,-0.028964,-87.77561,-26.416744,-17.661148,
555,-0.234862,0.124771,-0.159633,0.22842,-1.300115,-0.008611,-89.160367,-32.018713,-24.270212,
556,-0.234862,0.124771,-0.159633,0.233208,-1.299313,-0.008343,-89.03448,-36.928303,-30.816333,
557,-0.23578,0.130275,-0.163303,0.235602,-1.290762,-0.010218,-89.03448,-42.089667,-36.984792,
558,-0.23578,0.130275,-0.163303,0.24172,-1.278203,-0.019323,-90.356293,-46.558653,-43.405026,
559,-0.23578,0.130275,-0.163303,0.247306,-1.260031,-0.045835,-93.692296,-51.153526,-49.006994,
560,-0.23945,0.13578,-0.166972,0.249434,-1.24667,-0.057886,-98.161282,-56.503721,-55.364284,
561,-0.23945,0.13578,-0.166972,0.258743,-1.239188,-0.074222,-103.322646,-63.301615,-62.162178,
562,-0.243119,0.144954,-0.163303,0.263797,-1.216474,-0.131799,-107.791632,-70.225396,-68.645355,
563,-0.243119,0.144954,-0.163303,0.264861,-1.182003,-0.16822,-115.156018,-78.345103,-74.562041,
564,-0.243119,0.144954,-0.163303,0.251296,-1.131497,-0.203034,-127.996485,-86.842471,-79.912235,
565,-0.248624,0.148624,-0.162385,0.261669,-1.091147,-0.218299,-145.494768,-96.787538,-83.940617,
566,-0.248624,0.148624,-0.162385,0.249168,-1.047055,-0.193393,-164.944299,-105.977284,-86.584243,
567,-0.248624,0.148624,-0.162385,0.244114,-0.985327,-0.180271,-184.267943,-114.474652,-87.717225,
568,-0.255046,0.155963,-0.161468,0.230016,-0.916918,-0.157508,-204.535739,-123.538511,-87.717225,
569,-0.255046,0.155963,-0.161468,0.214588,-0.84744,-0.123497,-223.292891,-131.154671,-87.717225,
570,-0.261468,0.166055,-0.159633,0.207673,-0.788918,-0.094039,-240.665288,-137.449017,-87.024847,
571,-0.261468,0.166055,-0.159633,0.174423,-0.713027,-0.055744,-258.289458,-143.995137,-86.269525,
572,-0.261468,0.166055,-0.159633,0.141972,-0.653704,0.018705,-275.535968,-151.044806,-83.6259,
573,-0.273394,0.182569,-0.154128,0.123885,-0.573003,0.080031,-290.894173,-157.339152,-79.156914,
574,-0.273394,0.182569,-0.154128,0.118565,-0.493103,0.149124,-304.175244,-164.137046,-72.54785,
575,-0.283486,0.2,-0.149541,0.103403,-0.392895,0.168674,-316.323333,-169.676071,-64.805804,
576,-0.283486,0.2,-0.149541,0.064302,-0.244052,0.184742,-328.534365,-177.355174,-57.252588,
577,-0.283486,0.2,-0.149541,-0.012836,-0.056462,0.224912,-337.724111,-184.530729,-49.699372,
578,-0.298165,0.219266,-0.140367,-0.137587,0.194994,0.285435,-338.479433,-193.153984,-43.467969,
579,-0.298165,0.219266,-0.140367,-0.318995,0.485197,0.413979,-329.541461,-202.091956,-43.090308,
580,-0.298165,0.219266,-0.140367,-0.52381,0.733981,0.622596,-309.147778,-209.582228,-46.489255,
581,-0.312844,0.244954,-0.127523,-0.757618,0.930924,0.87058,-283.655675,-217.009557,-57.315531,
582,-0.312844,0.244954,-0.127523,-0.973605,1.053847,1.093659,-263.513766,-221.60443,-65.812899,
583,-0.33211,0.269725,-0.116514,-1.221511,1.141495,1.36628,-249.099712,-222.737413,-69.526564,
584,-0.33211,0.269725,-0.116514,-1.443616,1.279917,1.702371,-240.854118,-214.051214,-71.540755,
585,-0.33211,0.269725,-0.116514,-1.613054,1.410588,2.145581,-229.524294,-203.98026,-73.869663,
586,-0.348624,0.287156,-0.099083,-1.727963,1.539122,2.532286,-210.830085,-185.726655,-77.772158,
587,-0.348624,0.287156,-0.099083,-1.770256,1.674604,2.866234,-184.771491,-150.541258,-82.933522,
588,-0.348624,0.287156,-0.099083,-1.793664,1.808482,3.078868,-155.376892,-107.865588,-89.164925,
589,-0.363303,0.302752,-0.078899,-1.76733,1.936215,3.181436,-127.429994,-62.357463,-94.011572,
590,-0.363303,0.302752,-0.078899,-1.718654,2.066619,3.213572,-101.874947,-20.248285,-97.158745,
591,-0.380734,0.308257,-0.063303,-1.599222,2.23871,3.224284,-75.06103,17.769568,-101.942448,
592,-0.380734,0.308257,-0.063303,-1.393077,2.382476,3.107523,-42.078655,43.95405,-108.86623,
593,-0.380734,0.308257,-0.063303,-1.1074,2.444204,2.959697,-10.418092,64.725394,-109.05506,
594,-0.386239,0.308257,-0.059633,-0.823585,2.442066,2.711713,17.528807,79.894769,-97.78818,
595,-0.386239,0.308257,-0.059633,-0.552005,2.376864,2.460783,37.796603,88.140363,-76.387401,
596,-0.383486,0.30367,-0.06055,-0.356234,2.252606,2.198338,46.231027,93.553501,-50.643524,
597,-0.383486,0.30367,-0.06055,-0.238133,2.06074,1.974724,44.657441,95.945352,-25.403195,
598,-0.383486,0.30367,-0.06055,-0.156207,1.814094,1.812437,38.488981,94.749427,-0.225808,
599,-0.380734,0.297248,-0.07156,-0.125351,1.516943,1.685231,30.746935,91.916971,25.266295,
600,-0.380734,0.297248,-0.07156,-0.119234,1.234489,1.600874,22.060737,90.658101,50.003077,
601,-0.380734,0.297248,-0.07156,-0.154611,0.977955,1.574362,16.395825,89.839836,72.914498,
602,-0.375229,0.290826,-0.077064,-0.185732,0.774866,1.550527,16.018164,89.210402,91.042216,
603,-0.375229,0.290826,-0.077064,-0.20249,0.611326,1.551598,22.627228,89.399232,103.81974,
604,-0.368807,0.293578,-0.085321,-0.251166,0.514859,1.533656,35.530638,90.469271,110.680578,
605,-0.368807,0.293578,-0.085321,-0.28415,0.443244,1.512767,53.469526,91.72814,112.065334,
606,-0.368807,0.293578,-0.085321,-0.312079,0.419995,1.491075,73.989095,92.042858,111.498843,
607,-0.357798,0.297248,-0.090826,-0.326709,0.437097,1.453583,97.089347,90.595158,107.848122,
608,-0.357798,0.297248,-0.090826,-0.324315,0.480655,1.424393,121.259638,88.45508,102.875588,
609,-0.357798,0.297248,-0.090826,-0.329369,0.53116,1.43082,144.54872,87.888589,98.343658,
610,-0.350459,0.298165,-0.093578,-0.332561,0.56964,1.403772,164.187081,89.147458,95.700033,
611,-0.350459,0.298165,-0.093578,-0.326177,0.586742,1.38583,176.524,93.17584,98.217771,
612,-0.33945,0.298165,-0.102752,-0.307823,0.5985,1.360389,180.8671,99.092526,104.449174,
613,-0.33945,0.298165,-0.102752,-0.307823,0.591018,1.314862,183.070121,106.393968,116.282546,
614,-0.33945,0.298165,-0.102752,-0.296385,0.57632,1.256214,184.769594,111.995936,128.619465,
615,-0.330275,0.289908,-0.111009,-0.311281,0.559218,1.175606,186.091407,118.290283,138.87925,
616,-0.330275,0.289908,-0.111009,-0.311281,0.515661,1.085625,184.580764,123.262816,146.369522,
617,-0.320183,0.277982,-0.120183,-0.296917,0.451527,0.99966,180.174721,126.221159,152.789756,
618,-0.320183,0.277982,-0.120183,-0.261008,0.35987,0.88772,173.754488,128.23535,159.209989,
619,-0.320183,0.277982,-0.120183,-0.247975,0.259929,0.789437,165.634781,129.242446,163.993693,
620,-0.310092,0.273394,-0.126606,-0.220577,0.168272,0.70374,158.207452,130.438371,167.455583,
621,-0.310092,0.273394,-0.126606,-0.209139,0.063521,0.6076,152.164879,130.060711,167.707357,
622,-0.310092,0.273394,-0.126606,-0.19318,-0.050049,0.520832,148.451215,128.550067,164.749014,
623,-0.293578,0.266972,-0.13578,-0.147695,-0.149188,0.456292,147.444119,125.780555,160.091198,
624,-0.293578,0.266972,-0.13578,-0.131203,-0.236036,0.408088,152.038992,123.829308,154.363342,
625,-0.277064,0.266055,-0.145872,-0.094762,-0.306048,0.357741,160.788134,121.500399,148.006052,
626,-0.277064,0.266055,-0.145872,-0.086516,-0.384344,0.320785,172.306788,119.360321,141.837593,
627,-0.277064,0.266055,-0.145872,-0.076675,-0.430841,0.267492,187.60205,115.835487,134.095547,
628,-0.268807,0.258716,-0.151376,-0.065769,-0.468252,0.23,202.267878,111.114728,124.71697,
629,-0.268807,0.258716,-0.151376,-0.042627,-0.511542,0.18126,216.178384,106.268081,114.89779,
630,-0.268807,0.258716,-0.151376,-0.02321,-0.558306,0.147785,229.333568,101.421434,104.763892,
631,-0.255046,0.251376,-0.157798,0.006847,-0.612285,0.114578,241.733431,97.959543,95.070598,
632,-0.255046,0.251376,-0.157798,0.028127,-0.663057,0.077621,252.43382,94.245879,86.195569,
633,-0.255046,0.251376,-0.157798,0.04648,-0.71276,0.031024,260.238809,91.476366,78.705297,
634,-0.255046,0.251376,-0.157798,0.05579,-0.78491,-0.004594,264.267191,88.580967,71.466799,
635,-0.255046,0.251376,-0.157798,0.059514,-0.860801,-0.05253,264.456022,85.37085,64.291244,
636,-0.236697,0.215596,-0.169725,0.084784,-0.944442,-0.085202,260.994131,82.09779,57.052745,
637,-0.236697,0.215596,-0.169725,0.102339,-1.023807,-0.11225,252.307933,78.887673,49.68836,
638,-0.22844,0.195413,-0.173394,0.122023,-1.106111,-0.17063,238.963918,75.174009,41.757483,
639,-0.22844,0.195413,-0.173394,0.137982,-1.200174,-0.231957,220.710313,71.20857,33.88955,
640,-0.22844,0.195413,-0.173394,0.155804,-1.287823,-0.267842,197.924779,66.047206,25.518069,
641,-0.220183,0.175229,-0.174312,0.175487,-1.374937,-0.331847,171.488523,58.745764,17.90191,
642,-0.220183,0.175229,-0.174312,0.201821,-1.456707,-0.363715,142.786303,50.50017,9.845146,
643,-0.220183,0.175229,-0.174312,0.2231,-1.513893,-0.381658,115.342952,41.813972,1.725439,
644,-0.211927,0.156881,-0.175229,0.235868,-1.534736,-0.368,90.543227,32.183622,-6.142494,
645,-0.211927,0.156881,-0.175229,0.248636,-1.542218,-0.339881,69.394222,21.923837,-14.010427,
646,-0.209174,0.145872,-0.176147,0.245178,-1.527521,-0.326758,53.280695,10.53107,-21.437756,
647,-0.209174,0.145872,-0.176147,0.265659,-1.490377,-0.275073,40.880833,-0.043432,-28.361537,
648,-0.209174,0.145872,-0.176147,0.293057,-1.452966,-0.229279,31.628143,-8.603744,-36.229471,
649,-0.210092,0.137615,-0.178899,0.304494,-1.421968,-0.181878,26.026175,-15.653412,-43.342082,
650,-0.210092,0.137615,-0.178899,0.316996,-1.38429,-0.132335,23.57138,-21.129493,-49.384655,
651,-0.210092,0.137615,-0.178899,0.309016,-1.341801,-0.097253,23.57138,-25.78731,-55.049567,
652,-0.207339,0.134862,-0.175229,0.291727,-1.299313,-0.085202,22.564284,-29.941578,-58.574401,
653,-0.207339,0.134862,-0.175229,0.291461,-1.274461,-0.051727,19.668885,-32.1446,-62.476896,
654,-0.207339,0.134862,-0.175229,0.288269,-1.268583,-0.031642,12.933934,-34.536451,-64.491086,
655,-0.207339,0.134862,-0.175229,0.297579,-1.254954,-0.033248,5.191888,-37.180077,-65.183465,
656,-0.207339,0.134862,-0.175229,0.298643,-1.244265,-0.042354,-2.046611,-38.69072,-64.176369,
657,-0.210092,0.124771,-0.17156,0.290929,-1.226629,-0.047174,-11.2993,-41.145515,-62.728669,
658,-0.210092,0.124771,-0.17156,0.286939,-1.219414,-0.057618,-22.251463,-43.915028,-61.28097,
659,-0.213761,0.122018,-0.17156,0.291727,-1.199372,-0.050923,-34.462495,-46.87337,-59.015005,
660,-0.213761,0.122018,-0.17156,0.290131,-1.189752,-0.061635,-46.862358,-49.328166,-56.874927,
661,-0.213761,0.122018,-0.17156,0.297845,-1.175322,-0.057886,-58.88456,-51.342356,-53.790697,
662,-0.216514,0.122018,-0.173394,0.30609,-1.156082,-0.053334,-70.654988,-53.797152,-51.83945,
663,-0.216514,0.122018,-0.173394,0.308218,-1.137911,-0.043157,-81.858925,-57.070212,-49.195824,
664,-0.216514,0.122018,-0.173394,0.31008,-1.12642,-0.068063,-91.929879,-59.839724,-47.244577,
665,-0.218349,0.125688,-0.17156,0.30343,-1.106379,-0.083863,-102.189664,-63.175728,-46.048651,
666,-0.218349,0.125688,-0.17156,0.286673,-1.078587,-0.079578,-114.400696,-66.826449,-44.600951,
667,-0.223853,0.12844,-0.17156,0.273373,-1.056942,-0.090826,-127.933541,-71.232492,-43.656799,
668,-0.223853,0.12844,-0.17156,0.273107,-1.012316,-0.087076,-142.473482,-76.142082,-42.523817,
669,-0.223853,0.12844,-0.17156,0.260073,-0.970362,-0.080114,-156.572818,-81.051672,-41.390835,
670,-0.227523,0.138532,-0.170642,0.251296,-0.926004,-0.067259,-171.049815,-84.576506,-38.93604,
671,-0.227523,0.138532,-0.170642,0.230282,-0.876835,-0.06592,-186.470964,-88.227227,-36.292414,
672,-0.231193,0.148624,-0.169725,0.202353,-0.847173,-0.038337,-203.528643,-91.752061,-34.718827,
673,-0.231193,0.148624,-0.169725,0.194107,-0.824994,-0.011824,-222.53757,-95.151008,-32.704637,
674,-0.231193,0.148624,-0.169725,0.170966,-0.803348,-0.000577,-244.127178,-97.165199,-30.501615,
675,-0.243119,0.16422,-0.16789,0.15341,-0.776626,0.027275,-268.108639,-98.109351,-26.536177,
676,-0.243119,0.16422,-0.16789,0.140908,-0.757653,0.049234,-295.803763,-98.927616,-23.263117,
677,-0.243119,0.16422,-0.16789,0.104999,-0.732535,0.094493,-325.764853,-101.067694,-21.248926,
678,-0.251376,0.184404,-0.166972,0.077868,-0.696994,0.141626,-353.837638,-103.585433,-20.367717,
679,-0.251376,0.184404,-0.166972,0.045683,-0.63874,0.19465,-379.329742,-106.732606,-21.941304,
680,-0.257798,0.208257,-0.165138,0.014029,-0.559375,0.241783,-404.318298,-110.131553,-22.444852,
681,-0.257798,0.208257,-0.165138,-0.010974,-0.46745,0.304181,-426.222623,-115.670578,-22.507795,
682,-0.257798,0.208257,-0.165138,-0.042893,-0.339985,0.353724,-440.070186,-122.78319,-22.696626,
683,-0.26789,0.237615,-0.155046,-0.076941,-0.206908,0.335246,-450.329971,-129.455197,-25.025534,
684,-0.26789,0.237615,-0.155046,-0.173496,-0.021723,0.303913,-459.960321,-139.526151,-31.13105,
685,-0.26789,0.237615,-0.155046,-0.251166,0.082493,0.309537,-460.463869,-156.709717,-38.747209,
686,-0.277982,0.277982,-0.145872,-0.37246,0.185641,0.253031,-461.911568,-176.159248,-57.126701,
687,-0.277982,0.277982,-0.145872,-0.578339,0.340363,0.245533,-464.366363,-189.503263,-80.415783,
688,-0.289908,0.311927,-0.12844,-0.778632,0.531961,0.380772,-464.932855,-204.043203,-109.621551,
689,-0.289908,0.311927,-0.12844,-1.049148,0.915693,0.742571,-443.657963,-210.400493,-136.750185,
690,-0.289908,0.311927,-0.12844,-1.293064,1.453878,1.424929,-371.965356,-206.875659,-168.914295,
691,-0.306422,0.344954,-0.104587,-1.46596,1.91938,2.229671,-242.175931,-200.644256,-220.905598,
692,-0.306422,0.344954,-0.104587,-1.577943,2.26757,2.872929,-78.397034,-184.90839,-278.435925,
693,-0.326606,0.368807,-0.077982,-1.707482,2.581824,3.278916,73.926152,-145.379894,-328.790697,
694,-0.326606,0.368807,-0.077982,-1.731953,2.900085,3.421921,206.29626,-94.332743,-357.304087,
695,-0.326606,0.368807,-0.077982,-1.648963,3.175859,3.500655,299.137871,-55.622512,-353.842197,
696,-0.353211,0.36055,-0.062385,-1.450532,3.417695,3.635359,347.478452,-36.613586,-321.552199,
697,-0.353211,0.36055,-0.062385,-1.204488,3.540083,3.697221,359.374767,-8.037252,-275.162865,
698,-0.353211,0.36055,-0.062385,-1.019356,3.563331,3.540289,339.169915,28.029353,-219.206124,
699,-0.368807,0.321101,-0.070642,-0.839544,3.435866,3.188399,286.675065,59.815803,-162.431119,
700,-0.368807,0.321101,-0.070642,-0.612652,3.163032,2.701804,217.059592,81.342468,-104.586074,
701,-0.377982,0.277982,-0.081651,-0.470079,2.776896,2.188965,132.904179,96.071239,-47.999899,
702,-0.377982,0.277982,-0.081651,-0.397197,2.346401,1.750039,39.307246,102.932077,4.117291,
703,-0.377982,0.277982,-0.081651,-0.366342,1.836006,1.541958,-46.736471,100.351395,53.842628,
704,-0.374312,0.252294,-0.088991,-0.34719,1.370772,1.481702,-111.37941,96.197126,98.469545,
705,-0.374312,0.252294,-0.088991,-0.358362,0.988644,1.524015,-152.544436,94.371766,137.053889,
706,-0.374312,0.252294,-0.088991,-0.418476,0.690157,1.574094,-170.483324,96.323013,168.840339,
707,-0.36789,0.249541,-0.09633,-0.448268,0.457674,1.630332,-169.287398,97.204222,187.093944,
708,-0.36789,0.249541,-0.09633,-0.436564,0.304288,1.686302,-150.026698,95.064144,197.54256,
709,-0.356881,0.26789,-0.099083,-0.388153,0.201942,1.686302,-115.218961,93.805275,198.738485,
710,-0.356881,0.26789,-0.099083,-0.329901,0.144222,1.598731,-71.850914,94.81237,193.514178,
711,-0.356881,0.26789,-0.099083,-0.263136,0.117767,1.484648,-23.447389,97.330109,182.687902,
712,-0.346789,0.298165,-0.1,-0.198234,0.13674,1.322093,20.927754,98.274261,169.784491,
713,-0.346789,0.298165,-0.1,-0.147429,0.158117,1.182569,60.582137,97.015391,155.748099,
714,-0.333028,0.310092,-0.1,-0.104604,0.186176,1.009301,92.179757,91.665197,142.341141,
715,-0.333028,0.310092,-0.1,-0.086782,0.210493,0.907269,115.657669,84.174924,130.193052,
716,-0.333028,0.310092,-0.1,-0.055129,0.204881,0.840051,131.015875,76.369935,120.499758,
717,-0.322936,0.315596,-0.108257,-0.048213,0.194727,0.800416,140.835056,69.634984,114.142468,
718,-0.322936,0.315596,-0.108257,-0.040765,0.150368,0.807915,148.891819,63.529468,109.295821,
719,-0.322936,0.315596,-0.108257,-0.041297,0.101733,0.795596,161.732286,58.556934,103.001475,
720,-0.311009,0.311927,-0.112844,-0.085984,0.067796,0.773636,179.60823,55.913308,93.497011,
721,-0.311009,0.311927,-0.112844,-0.144503,0.044548,0.768816,198.428326,52.954966,80.341827,
722,-0.301835,0.304587,-0.119266,-0.167644,0.011412,0.787562,213.345928,48.989527,66.746039,
723,-0.301835,0.304587,-0.119266,-0.152749,-0.017982,0.778725,224.864582,45.716467,55.353271,
724,-0.301835,0.304587,-0.119266,-0.132799,-0.053523,0.778992,234.683762,46.157071,47.674169,
725,-0.295413,0.295413,-0.127523,-0.114712,-0.104829,0.746856,240.852222,49.430131,41.69454,
726,-0.295413,0.295413,-0.127523,-0.126681,-0.162015,0.696777,243.244074,54.025004,36.218458,
727,-0.295413,0.295413,-0.127523,-0.118436,-0.227217,0.649644,243.999395,57.423952,30.61649,
728,-0.294495,0.278899,-0.131193,-0.09822,-0.292954,0.621257,247.272455,60.382294,24.63686,
729,-0.294495,0.278899,-0.131193,-0.083058,-0.335977,0.580552,254.322124,63.718298,18.909005,
730,-0.289908,0.257798,-0.140367,-0.061513,-0.376327,0.541185,263.323039,67.054302,12.614659,
731,-0.289908,0.257798,-0.140367,-0.039967,-0.405989,0.5211,274.023428,70.201475,7.893899,
732,-0.289908,0.257798,-0.140367,-0.014432,-0.425496,0.477716,284.912648,73.222761,3.487856,
733,-0.284404,0.23945,-0.142202,0.018817,-0.459166,0.415586,294.920659,76.369935,0.277739,
734,-0.284404,0.23945,-0.142202,0.036373,-0.475199,0.385057,304.488065,78.887673,-3.939473,
735,-0.277064,0.214679,-0.150459,0.05978,-0.521429,0.342477,312.733659,82.664281,-7.841968,
736,-0.277064,0.214679,-0.150459,0.085848,-0.565253,0.296147,319.972158,87.196211,-11.429745,
737,-0.277064,0.214679,-0.150459,0.113511,-0.633395,0.217146,322.426953,90.909875,-12.562728,
738,-0.269725,0.188073,-0.153211,0.144632,-0.729061,0.104669,316.824985,92.546405,-11.681519,
739,-0.269725,0.188073,-0.153211,0.180275,-0.844501,-0.01718,303.229196,90.406327,-10.170876,
740,-0.269725,0.188073,-0.153211,0.237464,-0.967156,-0.157508,282.394909,86.315002,-8.345515,
741,-0.263303,0.161468,-0.156881,0.280821,-1.094621,-0.269985,254.133293,80.901864,-6.520155,
742,-0.263303,0.161468,-0.156881,0.316996,-1.1967,-0.396387,219.703218,73.222761,-7.212533,
743,-0.253211,0.13578,-0.156881,0.344127,-1.293701,-0.489849,180.300608,64.033015,-9.730272,
744,-0.253211,0.13578,-0.156881,0.371259,-1.372265,-0.518504,139.198526,52.325531,-12.625671,
745,-0.253211,0.13578,-0.156881,0.393868,-1.421434,-0.507524,99.229425,37.848534,-13.758653,
746,-0.249541,0.113761,-0.154128,0.420468,-1.445751,-0.454232,64.484632,22.805046,-13.318049,
747,-0.249541,0.113761,-0.154128,0.438289,-1.431321,-0.385407,35.278864,9.775748,-10.296763,
748,-0.249541,0.113761,-0.154128,0.432969,-1.409141,-0.296229,11.738008,-0.043432,-6.646042,
749,-0.246789,0.10367,-0.155963,0.419404,-1.358369,-0.210533,-6.012049,-8.981404,-2.239999,
750,-0.246789,0.10367,-0.155963,0.420468,-1.330044,-0.124033,-19.985498,-14.205712,-0.288752,
751,-0.244037,0.101835,-0.155046,0.403976,-1.30439,-0.046371,-27.916375,-16.597564,0.970117,
752,-0.244037,0.101835,-0.155046,0.394134,-1.295038,-0.001648,-29.993509,-17.415829,0.907174,
753,-0.244037,0.101835,-0.155046,0.370993,-1.284883,0.028881,-29.489962,-17.226998,1.033061,
754,-0.244954,0.100917,-0.155046,0.353437,-1.270988,0.040129,-28.797583,-17.289942,1.221891,
755,-0.244954,0.100917,-0.155046,0.344127,-1.261368,0.028346,-28.54581,-17.919376,1.725439,
756,-0.245872,0.10367,-0.154128,0.346787,-1.25148,0.008261,-32.070644,-18.234094,3.676686,
757,-0.245872,0.10367,-0.154128,0.350777,-1.226629,-0.019055,-39.246199,-18.548811,5.942651,
758,-0.245872,0.10367,-0.154128,0.363013,-1.211664,-0.038604,-48.750662,-19.555907,8.963938,
759,-0.246789,0.107339,-0.154128,0.371259,-1.192691,-0.062707,-57.43686,-20.940663,11.985224,
760,-0.246789,0.107339,-0.154128,0.364077,-1.181201,-0.075293,-66.374832,-22.640136,13.684697,
761,-0.246789,0.107339,-0.154128,0.366205,-1.182537,-0.11225,-77.326995,-23.899006,13.936471,
762,-0.249541,0.110092,-0.155963,0.345457,-1.192691,-0.122962,-91.866936,-26.542631,13.36998,
763,-0.249541,0.110092,-0.155963,0.338542,-1.204984,-0.124836,-107.728689,-30.382183,12.299941,
764,-0.253211,0.117431,-0.155963,0.319922,-1.204449,-0.105287,-123.023951,-34.851169,10.915185,
765,-0.253211,0.117431,-0.155963,0.307154,-1.204182,-0.095914,-137.060344,-39.949589,8.271559,
766,-0.253211,0.117431,-0.155963,0.286939,-1.200708,-0.0769,-148.893715,-44.985066,3.865517,
767,-0.253211,0.125688,-0.155963,0.269117,-1.195096,-0.045567,-159.531161,-49.9576,-1.736452,
768,-0.253211,0.125688,-0.155963,0.253158,-1.194829,-0.026553,-169.413285,-54.741304,-9.037894,
769,-0.253211,0.125688,-0.155963,0.232144,-1.172917,-0.033248,-178.728918,-59.713837,-15.961675,
770,-0.258716,0.140367,-0.157798,0.213525,-1.146195,-0.032713,-189.995798,-64.560484,-22.067191,
771,-0.258716,0.140367,-0.157798,0.203949,-1.092216,-0.069669,-204.032191,-69.847735,-27.543272,
772,-0.259633,0.152294,-0.157798,0.191181,-1.029953,-0.099931,-221.467531,-75.764421,-33.145241,
773,-0.259633,0.152294,-0.157798,0.173093,-0.968225,-0.095646,-240.035853,-82.625259,-38.432492,
774,-0.259633,0.152294,-0.157798,0.152878,-0.903824,-0.057886,-256.14938,-89.800814,-43.342082,
775,-0.26789,0.172477,-0.155046,0.15075,-0.834881,-0.009146,-269.556338,-98.424069,-48.314616,
776,-0.26789,0.172477,-0.155046,0.139844,-0.772083,0.004244,-281.515597,-106.354945,-54.294245,
777,-0.273394,0.186239,-0.156881,0.116171,-0.701002,0.041736,-292.090099,-114.474652,-59.896214,
778,-0.273394,0.186239,-0.156881,0.107393,-0.625378,0.081103,-300.020976,-124.60855,-64.994634,
779,-0.273394,0.186239,-0.156881,0.072016,-0.521696,0.133859,-305.308227,-135.057165,-69.085959,
780,-0.282569,0.208257,-0.150459,0.020945,-0.418816,0.174297,-308.392456,-144.561629,-72.044302,
781,-0.282569,0.208257,-0.150459,-0.048479,-0.284937,0.19224,-311.602573,-153.814318,-73.114341,
782,-0.282569,0.208257,-0.150459,-0.139981,-0.145447,0.206969,-316.071559,-163.633499,-72.73668,
783,-0.291743,0.23211,-0.144037,-0.236537,0.02611,0.26535,-323.876549,-173.075018,-74.499097,
784,-0.291743,0.23211,-0.144037,-0.383897,0.227061,0.402732,-326.331344,-178.488156,-78.212762,
785,-0.305505,0.253211,-0.133028,-0.563975,0.438166,0.647502,-313.994425,-181.887104,-85.388317,
786,-0.305505,0.253211,-0.133028,-0.77411,0.650608,0.964578,-285.543978,-179.495252,-97.599349,
787,-0.305505,0.253211,-0.133028,-1.042764,0.857973,1.330395,-249.666203,-172.760301,-119.944279,
788,-0.322018,0.277982,-0.117431,-1.18773,0.996661,1.658987,-211.963068,-163.318781,-143.611022,
789,-0.322018,0.277982,-0.117431,-1.262208,1.173829,1.94848,-178.477144,-151.422466,-154.814959,
790,-0.322018,0.277982,-0.117431,-1.284818,1.375849,2.104072,-156.321044,-130.084632,-154.311412,
791,-0.33945,0.291743,-0.104587,-1.28668,1.552483,2.221637,-146.942468,-102.011846,-142.47804,
792,-0.33945,0.291743,-0.104587,-1.248643,1.71442,2.308404,-143.606464,-74.127891,-128.756365,
793,-0.354128,0.29633,-0.092661,-1.222309,1.895864,2.337327,-142.032878,-46.180992,-116.041785,
794,-0.354128,0.29633,-0.092661,-1.169377,2.076239,2.367321,-140.333404,-20.059454,-107.922078,
795,-0.354128,0.29633,-0.092661,-1.067501,2.271846,2.41606,-128.311202,-2.37234,-103.704865,
796,-0.365138,0.298165,-0.081651,-0.955518,2.430843,2.51113,-102.944986,11.601109,-102.068335,
797,-0.365138,0.298165,-0.081651,-0.809753,2.517156,2.551836,-69.647892,26.203993,-100.180031,
798,-0.372477,0.3,-0.081651,-0.687396,2.523569,2.508987,-38.679707,39.170347,-91.934437,
799,-0.372477,0.3,-0.081651,-0.550941,2.476004,2.408562,-16.20889,47.541828,-74.310267,
800,-0.372477,0.3,-0.081651,-0.387887,2.381407,2.244668,-4.879067,53.39557,-49.762316,
801,-0.368807,0.299083,-0.078899,-0.279894,2.271846,2.068722,-0.850685,58.431047,-21.248926,
802,-0.368807,0.299083,-0.078899,-0.202224,2.121667,1.925717,-1.417176,60.130521,5.37616,
803,-0.368807,0.299083,-0.078899,-0.168708,1.94049,1.841895,0.156411,59.689916,26.965769,
804,-0.369725,0.294495,-0.087156,-0.175358,1.720032,1.809223,5.443662,58.368104,42.638691,
805,-0.369725,0.294495,-0.087156,-0.199564,1.491289,1.79985,13.374538,57.298065,54.78678,
806,-0.366972,0.292661,-0.088073,-0.225631,1.270029,1.804135,19.920659,59.123425,68.571399,
807,-0.366972,0.292661,-0.088073,-0.238931,1.073621,1.796904,24.452588,64.095959,83.426057,
808,-0.366972,0.292661,-0.088073,-0.267392,0.923175,1.763965,30.683991,68.753775,98.154828,
809,-0.356881,0.3,-0.089908,-0.277234,0.816553,1.712011,43.524458,73.91514,109.925256,
810,-0.356881,0.3,-0.089908,-0.291863,0.775935,1.654166,61.841007,76.684652,115.08662,
811,-0.356881,0.3,-0.089908,-0.296917,0.753221,1.581057,83.115898,78.132352,114.771903,
812,-0.350459,0.30367,-0.09633,-0.280692,0.738524,1.526961,100.803012,79.642995,114.268355,
813,-0.350459,0.30367,-0.09633,-0.237601,0.725163,1.495628,112.069892,81.720129,117.604359,
814,-0.342202,0.306422,-0.102752,-0.197968,0.700579,1.439658,118.490125,84.993189,125.031688,
815,-0.342202,0.306422,-0.102752,-0.175092,0.66584,1.363067,123.777377,89.021571,134.850868,
816,-0.342202,0.306422,-0.102752,-0.160197,0.620145,1.287011,129.694062,93.490557,144.355331,
817,-0.334862,0.30367,-0.106422,-0.176954,0.58407,1.209349,137.813769,96.63773,152.097378,
818,-0.334862,0.30367,-0.106422,-0.19451,0.531694,1.114011,148.262385,97.330109,155.873986,
819,-0.323853,0.300917,-0.111927,-0.197436,0.460346,1.042776,156.256205,96.889504,156.755194,
820,-0.323853,0.300917,-0.111927,-0.19451,0.380179,0.962972,162.235834,94.119992,156.881081,
821,-0.323853,0.300917,-0.111927,-0.162325,0.275695,0.897896,167.963689,89.90278,154.86689,
822,-0.310092,0.298165,-0.122936,-0.135459,0.178693,0.845407,175.579848,89.021571,152.097378,
823,-0.310092,0.298165,-0.122936,-0.124553,0.079821,0.759711,185.524916,88.140363,147.0619,
824,-0.310092,0.298165,-0.122936,-0.122426,-0.011302,0.693028,198.050666,86.692663,139.256911,
825,-0.297248,0.294495,-0.12844,-0.122426,-0.087727,0.655,212.716493,84.300811,128.997126,
826,-0.297248,0.294495,-0.12844,-0.110722,-0.14999,0.581891,228.389416,80.524203,117.478472,
827,-0.288073,0.281651,-0.136697,-0.089974,-0.204236,0.518957,242.488752,76.747595,105.141553,
828,-0.288073,0.281651,-0.136697,-0.079335,-0.244319,0.473967,252.62265,73.159818,93.748785,
829,-0.288073,0.281651,-0.136697,-0.060183,-0.296161,0.432725,258.350505,70.705023,83.740774,
830,-0.279817,0.272477,-0.13945,-0.047681,-0.344795,0.412908,261.938283,68.816719,74.676915,
831,-0.279817,0.272477,-0.13945,-0.031988,-0.386482,0.373274,263.88953,68.124341,68.319625,
832,-0.279817,0.272477,-0.13945,-0.030126,-0.436185,0.342744,263.260096,68.061397,63.410035,
833,-0.27156,0.254128,-0.148624,-0.026668,-0.470389,0.348904,262.756548,68.753775,59.129879,
834,-0.27156,0.254128,-0.148624,-0.015762,-0.509137,0.348368,263.7007,69.509097,56.738028,
835,-0.26422,0.233028,-0.157798,-0.006984,-0.550556,0.341405,266.281382,70.327362,54.40912,
836,-0.26422,0.233028,-0.157798,-0.003792,-0.577278,0.310073,269.491499,71.838005,52.583759,
837,-0.26422,0.233028,-0.157798,0.000464,-0.61175,0.258655,271.631577,73.096874,49.940133,
838,-0.26055,0.211009,-0.156881,0.025733,-0.652635,0.218217,270.876255,73.852196,48.42949,
839,-0.26055,0.211009,-0.156881,0.038235,-0.690581,0.162514,267.414364,73.789253,46.60413,
840,-0.253211,0.189908,-0.163303,0.057918,-0.755248,0.10949,261.560622,73.348648,44.904656,
841,-0.253211,0.189908,-0.163303,0.085848,-0.825261,0.071462,253.692689,71.775062,42.449861,
842,-0.253211,0.189908,-0.163303,0.090901,-0.910505,0.028078,243.747621,71.586231,39.995066,
843,-0.247706,0.172477,-0.162385,0.103669,-0.984258,-0.013163,231.536589,70.327362,37.099667,
844,-0.247706,0.172477,-0.162385,0.109521,-1.070571,-0.068598,216.367214,68.564945,34.07838,
845,-0.247706,0.172477,-0.162385,0.13346,-1.163564,-0.121623,197.484174,65.103054,30.490603,
846,-0.241284,0.152294,-0.16422,0.142504,-1.242395,-0.155098,174.320979,59.689916,25.455125,
847,-0.241284,0.152294,-0.16422,0.170168,-1.325501,-0.180539,149.773028,54.465609,21.3638,
848,-0.236697,0.13578,-0.165138,0.182935,-1.377342,-0.213479,124.092094,47.856545,15.573001,
849,-0.236697,0.13578,-0.165138,0.203417,-1.427313,-0.242133,99.921803,39.862725,9.278655,
850,-0.236697,0.13578,-0.165138,0.226026,-1.461517,-0.241865,79.087516,31.176527,2.732534,
851,-0.231193,0.122936,-0.162385,0.237996,-1.470335,-0.263557,61.589233,22.679159,-4.505964,
852,-0.231193,0.122936,-0.162385,0.24438,-1.464189,-0.239723,46.293971,14.433565,-10.926198,
853,-0.231193,0.122936,-0.162385,0.258211,-1.440139,-0.210265,33.327617,6.565632,-16.276392,
854,-0.226606,0.115596,-0.16422,0.262733,-1.406469,-0.184288,23.256662,-0.798754,-20.556548,
855,-0.226606,0.115596,-0.16422,0.278161,-1.382152,-0.143315,15.95522,-8.100196,-23.577834,
856,-0.224771,0.108257,-0.162385,0.279491,-1.355163,-0.095646,10.605026,-14.016882,-27.417385,
857,-0.224771,0.108257,-0.162385,0.287205,-1.342336,-0.071812,6.513701,-17.101111,-30.879276,
858,-0.224771,0.108257,-0.162385,0.266723,-1.341534,-0.055744,2.611206,-18.548811,-33.648788,
859,-0.224771,0.106422,-0.163303,0.25369,-1.334052,-0.051191,-2.801932,-22.136589,-35.977697,
860,-0.224771,0.106422,-0.163303,0.254222,-1.337259,-0.057351,-8.21507,-26.039083,-37.173623,
861,-0.227523,0.10367,-0.16422,0.269915,-1.327371,-0.051994,-16.083003,-29.312144,-38.306605,
862,-0.227523,0.10367,-0.16422,0.281087,-1.333518,-0.062439,-25.902184,-29.941578,-38.180718,
863,-0.227523,0.10367,-0.16422,0.286141,-1.327639,-0.082256,-37.294951,-31.452221,-37.299509,
864,-0.229358,0.100917,-0.159633,0.284013,-1.316148,-0.094575,-49.63187,-32.836978,-35.977697,
865,-0.229358,0.100917,-0.159633,0.290663,-1.30733,-0.122694,-63.101772,-35.984151,-34.970601,
866,-0.229358,0.100917,-0.159633,0.295717,-1.287823,-0.126443,-77.075221,-39.634872,-34.278223,
867,-0.23211,0.102752,-0.16055,0.293323,-1.270453,-0.147332,-91.489275,-43.41148,-34.467054,
868,-0.23211,0.102752,-0.16055,0.289599,-1.22262,-0.142511,-106.092159,-47.943409,-34.781771,
869,-0.233945,0.111927,-0.163303,0.296515,-1.191355,-0.144118,-120.757986,-53.293604,-35.033545,
870,-0.233945,0.111927,-0.163303,0.286939,-1.138445,-0.137423,-134.102001,-58.014364,-35.348262,
871,-0.233945,0.111927,-0.163303,0.274171,-1.092483,-0.126443,-147.697789,-62.67218,-34.718827,
872,-0.234862,0.115596,-0.161468,0.267787,-1.050796,-0.092432,-161.167691,-67.455884,-33.963506,
873,-0.234862,0.115596,-0.161468,0.244646,-1.000024,-0.071008,-173.630497,-71.610152,-33.459958,
874,-0.234862,0.115596,-0.161468,0.229218,-0.967957,-0.047174,-186.093303,-74.442608,-32.76758,
875,-0.241284,0.12844,-0.162385,0.200225,-0.928141,-0.011289,-198.178449,-77.275064,-32.704637,
876,-0.241284,0.12844,-0.162385,0.187723,-0.904359,0.005583,-210.326537,-79.352199,-32.830523,
877,-0.244037,0.141284,-0.163303,0.1707,-0.86962,0.029685,-222.7264,-80.233407,-32.641693,
878,-0.244037,0.141284,-0.163303,0.149154,-0.845837,0.044682,-236.699849,-80.925785,-32.641693,
879,-0.244037,0.141284,-0.163303,0.128141,-0.802547,0.04977,-251.869225,-82.373485,-33.082297,
880,-0.251376,0.156881,-0.163303,0.106861,-0.757653,0.045217,-267.0386,-83.19175,-33.522902,
881,-0.251376,0.156881,-0.163303,0.087976,-0.700468,0.045217,-284.159222,-85.583602,-35.600036,
882,-0.26055,0.177064,-0.161468,0.085316,-0.640343,0.048699,-303.797583,-89.108436,-36.984792,
883,-0.26055,0.177064,-0.161468,0.085316,-0.578882,0.076014,-325.009531,-95.339839,-40.194909,
884,-0.26055,0.177064,-0.161468,0.094093,-0.519558,0.124486,-343.32608,-102.200676,-42.586761,
885,-0.265138,0.2,-0.158716,0.082922,-0.45302,0.18983,-356.607151,-109.376232,-45.230386,
886,-0.265138,0.2,-0.158716,0.05313,-0.383809,0.232142,-365.167462,-117.684769,-49.951146,
887,-0.265138,0.2,-0.158716,0.004453,-0.291618,0.258119,-370.202939,-126.559798,-56.119606,
888,-0.272477,0.225688,-0.153211,-0.055395,-0.188203,0.253834,-373.727773,-137.574904,-65.435238,
889,-0.272477,0.225688,-0.153211,-0.132799,-0.084788,0.226786,-376.119625,-151.044806,-73.806719,
890,-0.284404,0.254128,-0.144954,-0.226695,0.013016,0.190901,-381.84748,-167.032446,-85.0736,
891,-0.284404,0.254128,-0.144954,-0.375386,0.195261,0.20081,-389.967187,-183.145973,-98.606445,
892,-0.284404,0.254128,-0.144954,-0.561581,0.381515,0.311144,-389.841301,-200.770143,-111.446912,
893,-0.29633,0.283486,-0.133945,-0.762406,0.632437,0.524849,-378.763251,-214.806536,-130.455838,
894,-0.29633,0.283486,-0.133945,-0.976265,0.926649,0.844068,-352.578769,-222.296808,-148.6465,
895,-0.29633,0.283486,-0.133945,-1.200764,1.270297,1.235325,-308.64423,-218.583144,-166.4595,
896,-0.317431,0.308257,-0.114679,-1.373926,1.61154,1.703977,-248.470277,-209.896946,-187.104957,
897,-0.317431,0.308257,-0.114679,-1.43803,1.862194,2.237705,-176.40001,-198.378291,-204.540297,
898,-0.33578,0.32844,-0.093578,-1.510913,1.991797,2.64262,-95.39177,-174.145057,-210.016378,
899,-0.33578,0.32844,-0.093578,-1.637526,2.171905,2.964249,-19.041346,-131.217614,-212.40823,
900,-0.33578,0.32844,-0.093578,-1.734347,2.434851,3.124394,49.692918,-78.156273,-213.163552,
901,-0.357798,0.331193,-0.075229,-1.708546,2.702341,3.178222,93.186852,-33.151695,-207.309809,
902,-0.357798,0.331193,-0.075229,-1.537778,2.91692,3.258563,109.740984,-3.127662,-187.419674,
903,-0.373394,0.319266,-0.066055,-1.276838,3.057479,3.305964,111.377514,27.525806,-154.500242,
904,-0.373394,0.319266,-0.066055,-1.044094,3.137646,3.202324,98.474103,61.829994,-114.090537,
905,-0.373394,0.319266,-0.066055,-0.817467,3.142991,2.95809,71.786074,88.392137,-74.624984,
906,-0.378899,0.3,-0.070642,-0.579669,3.016862,2.561209,34.901203,104.25389,-35.474149,
907,-0.378899,0.3,-0.070642,-0.411029,2.730399,2.106482,-7.145031,109.100537,1.158948,
908,-0.378899,0.3,-0.070642,-0.272712,2.387286,1.717367,-51.583118,101.987925,36.218458,
909,-0.378899,0.287156,-0.079817,-0.16658,1.989659,1.505805,-91.363388,89.336289,65.86483,
910,-0.378899,0.287156,-0.079817,-0.118436,1.591231,1.440729,-115.344848,78.887673,88.776252,
911,-0.370642,0.287156,-0.088073,-0.140779,1.224067,1.492147,-119.687947,71.145627,105.959818,
912,-0.370642,0.287156,-0.088073,-0.173496,0.924778,1.575968,-109.176389,67.494906,117.667302,
913,-0.370642,0.287156,-0.088073,-0.210203,0.716612,1.670234,-89.538027,66.865471,126.794105,
914,-0.36422,0.297248,-0.087156,-0.236803,0.571778,1.724866,-61.96879,66.613698,131.703695,
915,-0.36422,0.297248,-0.087156,-0.226429,0.48306,1.732364,-24.391541,67.872567,131.703695,
916,-0.36422,0.297248,-0.087156,-0.214725,0.457406,1.673716,19.983602,71.01974,128.745352,
917,-0.352294,0.312844,-0.088073,-0.221907,0.489206,1.591233,64.232858,74.796348,121.380967,
918,-0.352294,0.312844,-0.088073,-0.233877,0.535168,1.492147,103.32075,77.628804,113.701864,
919,-0.344037,0.322936,-0.091743,-0.223769,0.567235,1.400559,132.652405,77.691747,108.91816,
920,-0.344037,0.322936,-0.091743,-0.207809,0.588613,1.316469,149.017706,77.125256,110.554691,
921,-0.344037,0.322936,-0.091743,-0.177752,0.577122,1.247109,157.07447,77.754691,116.911981,
922,-0.333028,0.322018,-0.097248,-0.159665,0.552537,1.175338,160.976965,79.391221,125.849953,
923,-0.333028,0.322018,-0.097248,-0.158867,0.5023,1.105442,163.683534,81.405412,134.15849,
924,-0.323853,0.316514,-0.10367,-0.174028,0.427477,1.033403,166.012442,83.54549,140.767554,
925,-0.323853,0.316514,-0.10367,-0.193978,0.347845,0.97904,168.15252,84.300811,146.117748,
926,-0.323853,0.316514,-0.10367,-0.200894,0.261265,0.912089,170.796145,85.119076,149.453752,
927,-0.315596,0.311927,-0.112844,-0.205416,0.186176,0.856655,174.132149,85.119076,151.342056,
928,-0.315596,0.311927,-0.112844,-0.201958,0.11269,0.808183,178.601135,85.307907,151.845604,
929,-0.315596,0.311927,-0.112844,-0.191318,0.033592,0.753016,184.14016,86.629719,151.153226,
930,-0.307339,0.304587,-0.119266,-0.169506,-0.03455,0.690886,189.553298,87.825645,149.264922,
931,-0.307339,0.304587,-0.119266,-0.174294,-0.097882,0.60385,191.504545,87.762702,146.243635,
932,-0.294495,0.300917,-0.129358,-0.163921,-0.164687,0.543863,190.371563,87.636815,142.341141,
933,-0.294495,0.300917,-0.129358,-0.153015,-0.221338,0.506103,188.609146,85.307907,137.998041,
934,-0.294495,0.300917,-0.129358,-0.138119,-0.282265,0.47236,187.979711,83.167829,132.584903,
935,-0.281651,0.289908,-0.133028,-0.127213,-0.331701,0.453882,189.301524,81.594242,126.16467,
936,-0.281651,0.289908,-0.133028,-0.111254,-0.381939,0.446116,192.385754,80.020656,119.115002,
937,-0.281651,0.289908,-0.133028,-0.09955,-0.445805,0.415854,196.602966,79.139447,112.128277,
938,-0.272477,0.280734,-0.142202,-0.080399,-0.49925,0.402196,201.76433,78.572956,104.386231,
939,-0.272477,0.280734,-0.142202,-0.056193,-0.553228,0.375684,207.743959,77.251143,96.392411,
940,-0.265138,0.270642,-0.144954,-0.030924,-0.609345,0.335246,214.66774,77.314087,88.713308,
941,-0.265138,0.270642,-0.144954,-0.017624,-0.645687,0.296147,222.913334,76.684652,80.090053,
942,-0.265138,0.270642,-0.144954,0.004985,-0.686038,0.253834,231.033041,75.7405,72.096233,
943,-0.256881,0.256881,-0.155046,0.031585,-0.733871,0.216878,237.956823,73.537479,63.724752,
944,-0.256881,0.256881,-0.155046,0.05712,-0.778764,0.220359,244.62883,71.523288,55.416215,
945,-0.249541,0.241284,-0.16055,0.082124,-0.828467,0.17644,250.041968,70.893853,47.170621,
946,-0.249541,0.241284,-0.16055,0.102339,-0.870956,0.135466,251.049063,70.453249,39.554462,
947,-0.249541,0.241284,-0.16055,0.129471,-0.921461,0.066641,247.398342,68.690832,33.260115,
948,-0.243119,0.222936,-0.165138,0.156336,-0.988801,0.003173,236.949727,65.732489,26.588108,
949,-0.243119,0.222936,-0.165138,0.190649,-1.078053,-0.058422,221.591522,62.333542,19.412553,
950,-0.243119,0.222936,-0.165138,0.209801,-1.175322,-0.11707,202.771425,57.109234,11.166959,
951,-0.237615,0.200917,-0.170642,0.232676,-1.280073,-0.166613,180.930043,49.618962,0.277739,
952,-0.237615,0.200917,-0.170642,0.246508,-1.366653,-0.217496,158.648056,41.562198,-11.052084,
953,-0.23211,0.182569,-0.169725,0.266723,-1.443079,-0.237581,135.1072,31.365357,-23.389004,
954,-0.23211,0.182569,-0.169725,0.281885,-1.488506,-0.24374,111.31457,20.287307,-34.781771,
955,-0.23211,0.182569,-0.169725,0.290131,-1.503204,-0.234903,90.165566,7.698614,-45.796877,
956,-0.227523,0.168807,-0.169725,0.298111,-1.49679,-0.221245,72.919057,-3.82004,-54.797793,
957,-0.227523,0.168807,-0.169725,0.30476,-1.474076,-0.175183,59.952703,-14.646316,-62.9175,
958,-0.227523,0.168807,-0.169725,0.324178,-1.4372,-0.124836,49.00054,-23.710175,-69.778338,
959,-0.225688,0.155963,-0.17156,0.349979,-1.400323,-0.100199,41.887928,-31.829882,-75.569136,
960,-0.225688,0.155963,-0.17156,0.358225,-1.35543,-0.042354,37.418942,-38.250116,-80.415783,
961,-0.225688,0.155963,-0.17156,0.366737,-1.319889,-0.028696,35.530638,-42.782045,-83.059409,
962,-0.225688,0.155963,-0.17156,0.363013,-1.280608,-0.001916,33.453504,-46.432766,-85.325374,
963,-0.225688,0.155963,-0.17156,0.354235,-1.255221,-0.010218,28.606857,-48.887561,-85.828921,
964,-0.22844,0.141284,-0.169725,0.349181,-1.225025,-0.008879,21.053641,-51.657074,-82.933522,
965,-0.22844,0.141284,-0.169725,0.345989,-1.194562,-0.021733,9.4091,-55.181908,-78.71631,
966,-0.23211,0.13578,-0.166972,0.348649,-1.172917,-0.028964,-5.319671,-57.699646,-73.114341,
967,-0.23211,0.13578,-0.166972,0.349181,-1.149401,-0.031642,-22.125576,-60.091498,-66.757051,
968,-0.23211,0.13578,-0.166972,0.345989,-1.135506,-0.019858,-39.686803,-61.539198,-59.959157,
969,-0.236697,0.12844,-0.16422,0.340138,-1.118671,-0.017448,-56.618595,-63.301615,-53.916584,
970,-0.236697,0.12844,-0.16422,0.324976,-1.097293,-0.016913,-74.179822,-65.001088,-47.936955,
971,-0.236697,0.12844,-0.16422,0.3154,-1.087406,-0.007272,-90.985727,-67.329997,-42.523817,
972,-0.23945,0.130275,-0.162385,0.307952,-1.069769,0.011742,-108.421067,-69.470075,-37.047736,
973,-0.23945,0.130275,-0.162385,0.298643,-1.055606,0.030488,-124.975198,-71.421322,-33.900562,
974,-0.243119,0.134862,-0.162385,0.284811,-1.036099,0.041468,-140.270461,-74.127891,-30.501615,
975,-0.243119,0.134862,-0.162385,0.270447,-1.026212,0.06798,-154.495684,-75.953251,-28.361537,
976,-0.243119,0.134862,-0.162385,0.255552,-1.019799,0.072801,-167.273207,-77.967442,-26.976781,
977,-0.251376,0.144954,-0.161468,0.23906,-1.003231,0.069052,-179.610126,-79.792803,-26.913838,
978,-0.251376,0.144954,-0.161468,0.213525,-0.97544,0.090743,-191.380554,-81.869937,-27.85799,
979,-0.251376,0.144954,-0.161468,0.187457,-0.933219,0.104937,-203.276869,-84.010015,-28.676255,
980,-0.257798,0.156881,-0.16055,0.169636,-0.891532,0.119666,-214.858467,-85.835375,-29.68335,
981,-0.257798,0.156881,-0.16055,0.150218,-0.847173,0.146178,-226.754782,-87.975453,-29.935124,
982,-0.257798,0.156881,-0.16055,0.135854,-0.809762,0.168406,-238.084606,-90.619079,-31.13105,
983,-0.257798,0.156881,-0.16055,0.116437,-0.756852,0.192508,-248.659108,-93.262704,-32.76758,
984,-0.257798,0.156881,-0.16055,0.122821,-0.71757,0.209915,-258.793006,-96.409878,-34.152336,
985,-0.272477,0.190826,-0.155963,0.106329,-0.671341,0.206969,-268.801017,-100.438259,-36.04064,
986,-0.272477,0.190826,-0.155963,0.106329,-0.623241,0.201613,-280.13084,-105.725511,-38.117775,
987,-0.276147,0.210092,-0.153211,0.096221,-0.56365,0.200542,-291.586551,-113.5305,-40.95023,
988,-0.276147,0.210092,-0.153211,0.075208,-0.497379,0.173762,-302.538714,-122.594359,-44.600951,
989,-0.276147,0.210092,-0.153211,0.037969,-0.413471,0.145375,-314.560916,-134.553618,-48.377559,
990,-0.286239,0.233028,-0.146789,0.002858,-0.337313,0.136537,-326.394287,-150.289484,-52.342998,
991,-0.286239,0.233028,-0.146789,-0.052469,-0.230157,0.081103,-339.738302,-166.591842,-57.126701,
992,-0.286239,0.233028,-0.146789,-0.144503,-0.100554,0.014152,-354.844734,-182.642425,-62.162178,
993,-0.3,0.255963,-0.138532,-0.305695,0.084097,-0.017716,-371.650639,-198.944783,-70.470716,
994,-0.3,0.255963,-0.138532,-0.494817,0.339294,0.096367,-382.225141,-214.365932,-85.765978,
995,-0.310092,0.280734,-0.123853,-0.755756,0.669046,0.393091,-372.846565,-227.017568,-107.481473,
996,-0.310092,0.280734,-0.123853,-1.040902,1.039149,0.868973,-336.339355,-230.668289,-136.498411,
997,-0.310092,0.280734,-0.123853,-1.220713,1.319733,1.534459,-268.297469,-227.835833,-171.18026,
998,-0.334862,0.304587,-0.102752,-1.37366,1.515874,2.221101,-174.448762,-217.513105,-204.099693,
999,-0.334862,0.304587,-0.102752,-1.500007,1.571991,2.751347,-77.264052,-194.664627,-229.277079,
1000,-0.334862,0.304587,-0.102752,-1.710674,1.620358,3.070834,3.114753,-146.890537,-238.907429,
1001,-0.351376,0.321101,-0.083486,-1.834893,1.705602,3.125466,52.525374,-84.765337,-236.263803,
1002,-0.351376,0.321101,-0.083486,-1.775576,1.828791,3.058515,58.81972,-31.074561,-214.863025,
1003,-0.351376,0.321101,-0.083486,-1.616512,2.047379,2.885248,33.831165,16.762473,-176.782229,
1004,-0.351376,0.321101,-0.083486,-1.471279,2.261691,2.706892,-3.997858,58.053386,-139.20498,
1005,-0.351376,0.321101,-0.083486,-1.241993,2.45997,2.557995,-26.531619,80.146543,-112.265177,
1006,-0.384404,0.292661,-0.066972,-0.986373,2.596788,2.397314,-34.462495,93.049953,-90.927342,
1007,-0.384404,0.292661,-0.066972,-0.734477,2.60721,2.203962,-32.259474,97.8966,-80.982274,
1008,-0.385321,0.284404,-0.075229,-0.533918,2.553498,1.98624,-22.755011,91.53931,-70.974263,
1009,-0.385321,0.284404,-0.075229,-0.348254,2.422025,1.789406,-16.271834,78.447069,-57.819079,
1010,-0.385321,0.284404,-0.075229,-0.218715,2.231762,1.652024,-12.369339,65.354828,-43.719743,
1011,-0.379817,0.280734,-0.079817,-0.143971,1.999012,1.604088,-9.222166,54.402665,-29.68335,
1012,-0.379817,0.280734,-0.079817,-0.154611,1.757977,1.619084,-5.445558,47.478884,-15.395184,
1013,-0.379817,0.280734,-0.079817,-0.18653,1.534579,1.68657,-0.598911,43.072841,0.970117,
1014,-0.374312,0.277982,-0.083486,-0.229355,1.326948,1.795565,4.940114,42.884011,18.27957,
1015,-0.374312,0.277982,-0.083486,-0.284948,1.166882,1.864926,14.12986,47.22711,34.833702,
1016,-0.372477,0.277064,-0.086239,-0.350648,1.042356,1.920361,28.543913,56.731573,50.380738,
1017,-0.372477,0.277064,-0.086239,-0.408103,0.954173,1.957853,47.301066,66.739584,63.095318,
1018,-0.372477,0.277064,-0.086239,-0.424328,0.886833,1.959192,71.093696,76.055217,73.103329,
1019,-0.368807,0.276147,-0.089908,-0.447204,0.866791,1.917683,98.033499,87.888589,80.656545,
1020,-0.368807,0.276147,-0.089908,-0.468749,0.874273,1.842966,123.525603,101.232603,86.57323,
1021,-0.362385,0.275229,-0.098165,-0.465291,0.890574,1.785657,144.296946,112.373597,92.238142,
1022,-0.362385,0.275229,-0.098165,-0.43417,0.901797,1.673448,154.556731,123.136929,100.043132,
1023,-0.362385,0.275229,-0.098165,-0.402517,0.888436,1.559633,154.934392,133.270827,111.561786,
1024,-0.350459,0.272477,-0.105505,-0.36182,0.844077,1.434034,149.206536,141.957026,127.171765,
1025,-0.350459,0.272477,-0.105505,-0.299311,0.767919,1.281119,143.038077,147.873711,144.921823,
1026,-0.350459,0.272477,-0.105505,-0.249039,0.692028,1.098479,137.436108,150.643224,161.916558,
1027,-0.342202,0.268807,-0.110092,-0.202756,0.590216,0.961097,132.085914,148.817863,174.505251,
1028,-0.342202,0.268807,-0.110092,-0.162857,0.471302,0.830946,129.127571,143.593556,183.19145,
1029,-0.325688,0.26422,-0.121101,-0.115244,0.326467,0.730253,129.316401,137.739813,184.576206,
1030,-0.325688,0.26422,-0.121101,-0.076675,0.18003,0.651251,135.233087,132.641393,181.114315,
1031,-0.325688,0.26422,-0.121101,-0.053533,0.037867,0.596352,145.99642,127.920633,173.812873,
1032,-0.310092,0.266055,-0.129358,-0.043691,-0.084788,0.545202,160.53636,122.822212,163.741919,
1033,-0.310092,0.266055,-0.129358,-0.01523,-0.194616,0.484411,178.349361,116.464922,151.656773,
1034,-0.310092,0.266055,-0.129358,-0.01789,-0.269438,0.42362,196.540022,108.848763,137.368607,
1035,-0.3,0.262385,-0.136697,-0.021082,-0.339718,0.378094,214.038306,99.470186,122.954553,
1036,-0.3,0.262385,-0.136697,-0.008314,-0.394231,0.347297,230.025946,89.776893,107.470461,
1037,-0.284404,0.255046,-0.146789,-0.016294,-0.441529,0.368453,245.887699,81.846016,92.993464,
1038,-0.284404,0.255046,-0.146789,0.010571,-0.490431,0.38104,261.434735,75.236952,80.341827,
1039,-0.284404,0.255046,-0.146789,-0.002462,-0.531851,0.387199,279.751284,71.712118,69.263777,
1040,-0.273394,0.241284,-0.150459,-0.013368,-0.572468,0.357206,297.060737,68.439058,57.304519,
1041,-0.273394,0.241284,-0.150459,-0.001132,-0.609345,0.300164,310.02709,65.543659,47.170621,
1042,-0.269725,0.220183,-0.156881,0.012167,-0.642748,0.25919,318.083854,62.962977,38.421479,
1043,-0.269725,0.220183,-0.156881,0.019881,-0.673746,0.196525,319.783328,61.955881,32.44185,
1044,-0.269725,0.220183,-0.156881,0.052066,-0.714898,0.168941,313.992529,61.011729,29.105846,
1045,-0.26422,0.197248,-0.157798,0.057918,-0.775557,0.120202,302.347988,61.326446,27.658147,
1046,-0.26422,0.197248,-0.157798,0.067228,-0.842897,0.096367,285.730913,62.962977,26.965769,
1047,-0.26422,0.197248,-0.157798,0.070952,-0.91291,0.065838,265.714891,64.788337,25.706899,
1048,-0.257798,0.169725,-0.162385,0.064568,-0.996817,0.038522,242.048148,67.117245,24.573917,
1049,-0.257798,0.169725,-0.162385,0.068026,-1.079656,0.014688,215.863666,68.816719,23.126217,
1050,-0.252294,0.147706,-0.162385,0.080794,-1.154479,-0.01236,188.86092,69.005549,23.126217,
1051,-0.252294,0.147706,-0.162385,0.105797,-1.202846,-0.037533,162.487608,67.872567,22.056178,
1052,-0.252294,0.147706,-0.162385,0.137982,-1.236249,-0.048245,138.569091,65.417772,21.112026,
1053,-0.246789,0.127523,-0.16055,0.170966,-1.258161,-0.043157,116.790652,62.585316,19.790214,
1054,-0.246789,0.127523,-0.16055,0.196501,-1.262169,-0.057886,98.725877,58.30516,18.657231,
1055,-0.246789,0.127523,-0.16055,0.225228,-1.262436,-0.067259,83.934163,53.269683,17.650136,
1056,-0.241284,0.114679,-0.157798,0.248902,-1.252816,-0.092432,71.5343,48.297149,17.587192,
1057,-0.241284,0.114679,-0.157798,0.281087,-1.235714,-0.088415,58.379116,44.394654,19.223722,
1058,-0.237615,0.107339,-0.16055,0.305026,-1.227698,-0.084934,44.594497,41.247481,22.307952,
1059,-0.237615,0.107339,-0.16055,0.324444,-1.232775,-0.096717,30.054557,39.485064,25.518069,
1060,-0.237615,0.107339,-0.16055,0.331892,-1.234913,-0.102609,14.570464,36.841438,28.539355,
1061,-0.233028,0.10367,-0.159633,0.337478,-1.264841,-0.125908,1.163506,34.197813,30.427659,
1062,-0.233028,0.10367,-0.159633,0.344127,-1.28809,-0.131799,-12.180509,30.421205,32.190076,
1063,-0.230275,0.100917,-0.161468,0.353703,-1.306528,-0.126979,-23.887993,25.889275,32.630681,
1064,-0.230275,0.100917,-0.161468,0.366737,-1.324432,-0.134745,-34.084835,21.231459,31.749472,
1065,-0.230275,0.100917,-0.161468,0.367801,-1.343672,-0.159651,-44.155789,16.951303,29.483507,
1066,-0.22844,0.10367,-0.162385,0.370195,-1.362912,-0.166078,-57.310973,11.286392,25.706899,
1067,-0.22844,0.10367,-0.162385,0.365407,-1.368791,-0.16822,-70.466157,5.558536,21.804404,
1068,-0.22844,0.10367,-0.162385,0.368333,-1.369325,-0.181878,-83.936059,-0.798754,17.776023,
1069,-0.227523,0.110092,-0.163303,0.376579,-1.368791,-0.155098,-96.021204,-8.918461,12.551715,
1070,-0.227523,0.110092,-0.163303,0.381101,-1.358369,-0.158312,-105.462724,-17.667603,6.383255,
1071,-0.227523,0.117431,-0.16422,0.384292,-1.342336,-0.138226,-112.071788,-26.416744,-1.736452,
1072,-0.227523,0.117431,-0.16422,0.374717,-1.317217,-0.129657,-115.848396,-34.851169,-11.240915,
1073,-0.227523,0.117431,-0.16422,0.370461,-1.292098,-0.106894,-118.303191,-42.530271,-20.493604,
1074,-0.22844,0.125688,-0.165138,0.357959,-1.255221,-0.07449,-120.883873,-50.209374,-29.242746,
1075,-0.22844,0.125688,-0.165138,0.343329,-1.209259,-0.057618,-123.086894,-58.266138,-36.795962,
1076,-0.22844,0.125688,-0.165138,0.33269,-1.16784,-0.042621,-125.982294,-66.197014,-43.656799,
1077,-0.23211,0.136697,-0.172477,0.321518,-1.126687,-0.037265,-129.821845,-72.994909,-49.888203,
1078,-0.23211,0.136697,-0.172477,0.305558,-1.085268,-0.053869,-135.297927,-79.352199,-55.175454,
1079,-0.234862,0.144037,-0.168807,0.281619,-1.040107,-0.05253,-143.102916,-85.394771,-58.448514,
1080,-0.234862,0.144037,-0.168807,0.265925,-1.000024,-0.023875,-152.040889,-91.626174,-60.840366,
1081,-0.234862,0.144037,-0.168807,0.244912,-0.955131,-0.03673,-161.104748,-96.724595,-62.351009,
1082,-0.243119,0.154128,-0.16789,0.221504,-0.906496,-0.02575,-170.735098,-102.200676,-64.55403,
1083,-0.243119,0.154128,-0.16789,0.206343,-0.865344,-0.002987,-179.8619,-107.424984,-65.624069,
1084,-0.249541,0.16422,-0.166055,0.185063,-0.799073,0.028614,-189.429307,-112.334574,-65.372295,
1085,-0.249541,0.16422,-0.166055,0.173359,-0.753645,0.047092,-199.814979,-115.670578,-64.239313,
1086,-0.249541,0.16422,-0.166055,0.163784,-0.70314,0.046289,-211.900124,-118.628921,-62.162178,
1087,-0.258716,0.177064,-0.16055,0.148356,-0.655575,0.06798,-224.048213,-121.776094,-58.637344,
1088,-0.258716,0.177064,-0.16055,0.132928,-0.605337,0.101723,-234.874489,-125.237985,-55.804888,
1089,-0.258716,0.177064,-0.16055,0.120959,-0.553763,0.109222,-245.07133,-128.259271,-52.909489,
1090,-0.268807,0.193578,-0.157798,0.102605,-0.508602,0.117256,-255.331115,-132.350596,-51.461789,
1091,-0.268807,0.193578,-0.157798,0.083986,-0.441529,0.112971,-265.276183,-136.882526,-50.265863,
1092,-0.278899,0.211009,-0.155046,0.056056,-0.373388,0.146982,-275.598911,-140.973851,-48.503446,
1093,-0.278899,0.211009,-0.155046,0.027063,-0.300971,0.155016,-286.2993,-145.946385,-46.615142,
1094,-0.278899,0.211009,-0.155046,-0.015496,-0.214391,0.175636,-295.426103,-151.737184,-45.419216,
1095,-0.289908,0.231193,-0.147706,-0.064173,-0.12594,0.213129,-303.797583,-158.03153,-43.593856,
1096,-0.289908,0.231193,-0.147706,-0.106466,-0.028671,0.242855,-311.413743,-165.962407,-44.663895,
1097,-0.289908,0.231193,-0.147706,-0.179348,0.083295,0.311679,-315.630955,-173.452679,-47.559294,
1098,-0.305505,0.251376,-0.134862,-0.283884,0.229466,0.36765,-311.91729,-182.327708,-53.350093,
1099,-0.305505,0.251376,-0.134862,-0.426988,0.39648,0.48334,-301.531619,-190.258584,-61.973348,
1100,-0.316514,0.277982,-0.122936,-0.637655,0.604379,0.722754,-279.501406,-193.468701,-76.576232,
1101,-0.316514,0.277982,-0.122936,-0.919609,0.866791,1.09473,-242.175931,-189.566206,-102.8866,
1102,-0.316514,0.277982,-0.122936,-1.163525,1.069078,1.6464,-184.330886,-179.495252,-138.890263,
1103,-0.333028,0.29633,-0.105505,-1.425529,1.230748,2.215745,-106.65865,-164.137046,-176.278681,
1104,-0.333028,0.29633,-0.105505,-1.645239,1.371841,2.79607,-25.272749,-142.862155,-216.184838,
1105,-0.350459,0.308257,-0.093578,-1.768394,1.409252,3.110737,55.483717,-102.326563,-240.92162,
1106,-0.350459,0.308257,-0.093578,-1.87426,1.419139,3.148496,102.628372,-54.741304,-253.069709,
1107,-0.350459,0.308257,-0.093578,-1.839149,1.465369,2.952198,105.146111,-7.344874,-242.054602,
1108,-0.366055,0.299083,-0.080734,-1.676095,1.642805,2.635122,63.981084,31.554187,-209.512831,
1109,-0.366055,0.299083,-0.080734,-1.510381,1.934611,2.394636,-0.22125,62.270598,-167.403652,
1110,-0.366055,0.299083,-0.080734,-1.156609,2.203437,2.213603,-53.093761,75.048122,-137.064902,
1111,-0.376147,0.273394,-0.086239,-0.903383,2.39076,2.066312,-87.020289,80.838921,-110.628647,
1112,-0.376147,0.273394,-0.086239,-0.694844,2.502993,1.965887,-100.867851,68.439058,-93.445081,
1113,-0.376147,0.263303,-0.091743,-0.45279,2.496313,1.954907,-103.448533,47.856545,-81.926426,
1114,-0.376147,0.263303,-0.091743,-0.307291,2.379002,1.998826,-97.594791,30.169431,-68.330638,
1115,-0.376147,0.263303,-0.091743,-0.207809,2.157742,2.059885,-89.600971,22.175611,-51.210015,
1116,-0.37156,0.265138,-0.09633,-0.207809,1.931137,2.115855,-84.061946,18.587833,-26.662064,
1117,-0.37156,0.265138,-0.09633,-0.210735,1.693844,2.175575,-80.977716,20.979685,2.1031,
1118,-0.37156,0.265138,-0.09633,-0.237867,1.470981,2.215477,-79.718847,28.721731,31.938302,
1119,-0.370642,0.26789,-0.09633,-0.28415,1.266288,2.220566,-77.075221,40.240386,59.066936,
1120,-0.370642,0.26789,-0.09633,-0.324315,1.10061,2.210389,-68.51491,52.262587,81.537753,
1121,-0.370642,0.274312,-0.095413,-0.334422,0.97555,2.161382,-50.953683,63.340637,97.840111,
1122,-0.370642,0.274312,-0.095413,-0.320325,0.894048,2.068455,-28.482866,71.649175,108.162839,
1123,-0.370642,0.274312,-0.095413,-0.295055,0.849956,1.967761,0.093467,79.265334,114.268355,
1124,-0.36789,0.282569,-0.09633,-0.294523,0.865722,1.901882,33.20173,85.748511,115.338394,
1125,-0.36789,0.282569,-0.09633,-0.304631,0.903935,1.826898,68.953618,91.665197,111.81356,
1126,-0.356881,0.291743,-0.09633,-0.319793,0.937872,1.739059,101.747164,93.742331,107.533404,
1127,-0.356881,0.291743,-0.09633,-0.306493,0.954974,1.66836,122.014959,95.504748,110.114086,
1128,-0.356881,0.291743,-0.09633,-0.280958,0.933062,1.592304,126.169228,100.036678,122.136288,
1129,-0.346789,0.290826,-0.105505,-0.267126,0.887367,1.519462,119.434277,107.275176,140.075176,
1130,-0.346789,0.290826,-0.105505,-0.25356,0.835793,1.431356,109.929814,113.380692,161.22418,
1131,-0.346789,0.290826,-0.105505,-0.246113,0.77353,1.319683,101.810107,118.038509,180.862541,
1132,-0.336697,0.287156,-0.111009,-0.213395,0.678399,1.213098,96.711686,120.682134,194.898934,
1133,-0.336697,0.287156,-0.111009,-0.19983,0.561623,1.100354,96.271082,121.87806,205.032832,
1134,-0.322018,0.293578,-0.122018,-0.18254,0.444045,0.99002,98.977651,120.996852,210.44597,
1135,-0.322018,0.293578,-0.122018,-0.167112,0.314977,0.883435,104.76845,118.982661,211.075405,
1136,-0.322018,0.293578,-0.122018,-0.155143,0.200338,0.777118,112.636383,114.136014,208.99827,
1137,-0.308257,0.290826,-0.12844,-0.133863,0.087036,0.701598,122.140846,108.722876,203.459245,
1138,-0.308257,0.290826,-0.12844,-0.111254,-0.020387,0.625274,134.037161,102.302642,195.339538,
1139,-0.308257,0.290826,-0.12844,-0.099284,-0.105898,0.567697,146.814685,95.630635,184.702093,
1140,-0.293578,0.29633,-0.134862,-0.063641,-0.190073,0.520564,161.921116,88.580967,171.483965,
1141,-0.293578,0.29633,-0.134862,-0.022146,-0.275852,0.490571,179.167626,80.964808,156.692251,
1142,-0.280734,0.291743,-0.141284,-0.000866,-0.361897,0.430047,199.309535,75.048122,139.131024,
1143,-0.280734,0.291743,-0.141284,0.007113,-0.437788,0.359616,220.710313,71.838005,121.066249,
1144,-0.280734,0.291743,-0.141284,-0.000334,-0.495241,0.325605,240.789279,68.061397,103.882683,
1145,-0.269725,0.285321,-0.148624,0.001794,-0.530782,0.263743,256.713975,62.522372,87.957987,
1146,-0.269725,0.285321,-0.148624,0.020147,-0.556168,0.237498,268.295573,57.361008,74.173368,
1147,-0.262385,0.27156,-0.155046,0.040895,-0.576744,0.214468,274.652863,52.954966,62.7806,
1148,-0.262385,0.27156,-0.155046,0.059514,-0.590105,0.194918,277.611206,51.192549,53.527911,
1149,-0.262385,0.27156,-0.155046,0.064834,-0.610147,0.172691,278.05181,49.367188,46.100582,
1150,-0.257798,0.249541,-0.159633,0.084784,-0.647825,0.141358,274.086372,49.367188,39.806236,
1151,-0.257798,0.249541,-0.159633,0.083188,-0.680693,0.096635,265.33723,50.059566,35.274306,
1152,-0.257798,0.249541,-0.159633,0.092231,-0.737612,0.093154,253.377972,50.50017,31.875359,
1153,-0.252294,0.225688,-0.161468,0.096487,-0.776893,0.078425,240.978109,50.814888,29.735281,
1154,-0.252294,0.225688,-0.161468,0.101275,-0.812701,0.071462,227.885868,50.751944,26.776938,
1155,-0.246789,0.207339,-0.166972,0.109787,-0.843432,0.058072,214.66774,49.367188,23.881539,
1156,-0.246789,0.207339,-0.166972,0.119363,-0.88405,0.061285,201.5755,47.604771,20.293761,
1157,-0.246789,0.207339,-0.166972,0.141972,-0.911574,0.035309,188.86092,45.464693,16.957758,
1158,-0.244037,0.187156,-0.16789,0.165646,-0.947114,0.0254,177.216379,43.76522,13.558811,
1159,-0.244037,0.187156,-0.16789,0.180275,-0.981853,0.006654,165.445951,41.876916,10.411637,
1160,-0.244037,0.187156,-0.16789,0.186659,-1.016325,-0.015038,154.17907,37.78559,6.320312,
1161,-0.238532,0.168807,-0.17156,0.218844,-1.061218,-0.028428,142.91219,31.931848,-0.918187,
1162,-0.238532,0.168807,-0.17156,0.224164,-1.099965,-0.03057,133.155953,27.777579,-9.16378,
1163,-0.233028,0.155046,-0.168807,0.233474,-1.151539,-0.03432,125.602737,22.616215,-19.486509,
1164,-0.233028,0.155046,-0.168807,0.236932,-1.204449,-0.041015,119.937825,17.014247,-31.256937,
1165,-0.233028,0.155046,-0.168807,0.230814,-1.235447,-0.013163,116.287104,13.489413,-41.831439,
1166,-0.233945,0.141284,-0.169725,0.22443,-1.249075,-0.02575,112.825214,9.209257,-50.706468,
1167,-0.233945,0.141284,-0.169725,0.218578,-1.23999,-0.020394,107.726793,3.733176,-58.574401,
1168,-0.230275,0.13211,-0.168807,0.234804,-1.240524,-0.017984,99.795916,-0.421093,-63.861652,
1169,-0.230275,0.13211,-0.168807,0.253424,-1.230103,-0.026821,89.850849,-4.386531,-68.015921,
1170,-0.230275,0.13211,-0.168807,0.266989,-1.216207,-0.05012,78.269251,-8.163139,-71.351924,
1171,-0.230275,0.118349,-0.169725,0.291195,-1.207389,-0.090022,64.799349,-12.758012,-74.310267,
1172,-0.230275,0.118349,-0.169725,0.334818,-1.203113,-0.11225,49.126427,-18.045263,-77.142723,
1173,-0.230275,0.118349,-0.169725,0.359555,-1.196433,-0.130728,32.572295,-24.150779,-78.779253,
1174,-0.231193,0.106422,-0.166055,0.388282,-1.203648,-0.108501,18.535902,-30.88573,-79.031027,
1175,-0.231193,0.106422,-0.166055,0.407168,-1.202846,-0.101805,5.884266,-37.24302,-77.520384,
1176,-0.22844,0.102752,-0.166972,0.417808,-1.196967,-0.087076,-7.459749,-42.844989,-75.506193,
1177,-0.22844,0.102752,-0.166972,0.424458,-1.18227,-0.085202,-22.18852,-47.943409,-73.680832,
1178,-0.22844,0.102752,-0.166972,0.422862,-1.186813,-0.065385,-36.350799,-53.356547,-70.470716,
1179,-0.230275,0.098165,-0.163303,0.420734,-1.182804,-0.057618,-50.072475,-59.084403,-67.701203,
1180,-0.230275,0.098165,-0.163303,0.415946,-1.182804,-0.036194,-62.849998,-64.938145,-65.498182,
1181,-0.230275,0.098165,-0.163303,0.397592,-1.178529,-0.029499,-75.438691,-69.281244,-63.169274,
1182,-0.231193,0.097248,-0.16422,0.392804,-1.18227,0.003173,-87.523837,-75.512647,-61.973348,
1183,-0.231193,0.097248,-0.16422,0.374983,-1.192691,0.007725,-99.231321,-80.988729,-62.9175,
1184,-0.237615,0.100917,-0.162385,0.352639,-1.201243,0.026739,-110.309371,-85.961262,-64.679917,
1185,-0.237615,0.100917,-0.162385,0.33269,-1.221017,0.023793,-121.450364,-90.99674,-66.631164,
1186,-0.237615,0.100917,-0.162385,0.307952,-1.212733,0.002637,-133.346679,-96.598708,-69.778338,
1187,-0.240367,0.10367,-0.163303,0.29944,-1.192691,0.001834,-145.683599,-102.515394,-73.743776,
1188,-0.240367,0.10367,-0.163303,0.276299,-1.145126,0.01201,-158.649952,-108.243249,-77.45744,
1189,-0.249541,0.113761,-0.159633,0.260871,-1.095422,0.014688,-171.67925,-112.523405,-80.415783,
1190,-0.249541,0.113761,-0.159633,0.232144,-1.037435,0.029685,-184.897377,-116.4259,-81.548766,
1191,-0.249541,0.113761,-0.159633,0.201821,-0.951657,0.051912,-197.29724,-120.391338,-80.919331,
1192,-0.256881,0.122936,-0.156881,0.176019,-0.873628,0.067445,-209.948877,-124.167946,-78.842197,
1193,-0.256881,0.122936,-0.156881,0.159794,-0.788918,0.103866,-222.222852,-126.748628,-76.450345,
1194,-0.256881,0.122936,-0.156881,0.148622,-0.706614,0.123415,-233.741507,-128.007497,-72.673737,
1195,-0.26422,0.137615,-0.157798,0.13479,-0.635533,0.157426,-245.008387,-128.699875,-67.512373,
1196,-0.26422,0.137615,-0.157798,0.130268,-0.564719,0.177243,-256.778815,-129.769914,-60.966252,
1197,-0.278899,0.153211,-0.154128,0.125481,-0.504594,0.208576,-266.786826,-131.595275,-53.916584,
1198,-0.278899,0.153211,-0.154128,0.132928,-0.450882,0.217681,-277.487215,-133.231805,-46.866916,
1199,-0.278899,0.153211,-0.154128,0.131066,-0.402782,0.221698,-289.38353,-136.441922,-40.320796,
1200,-0.290826,0.170642,-0.151376,0.137982,-0.358958,0.197061,-302.727545,-141.540342,-34.907658,
1201,-0.290826,0.170642,-0.151376,0.130534,-0.323684,0.201881,-315.819785,-147.519972,-29.557463,
1202,-0.290826,0.170642,-0.151376,0.091699,-0.284403,0.179118,-327.779044,-156.520887,-26.536177,
1203,-0.298165,0.190826,-0.145872,0.049406,-0.218666,0.123683,-340.934228,-167.724824,-25.529081,
1204,-0.298165,0.190826,-0.145872,-0.042361,-0.112044,0.084316,-355.033564,-181.698273,-26.976781,
1205,-0.311927,0.217431,-0.13945,-0.171368,0.038669,0.113774,-365.545123,-197.937687,-30.942219,
1206,-0.311927,0.217431,-0.13945,-0.339476,0.26367,0.186616,-365.356293,-212.351741,-38.432492,
1207,-0.311927,0.217431,-0.13945,-0.599884,0.521807,0.341138,-349.620426,-221.856204,-53.66481,
1208,-0.325688,0.245872,-0.129358,-0.863484,0.833923,0.632505,-316.63805,-225.443982,-76.198571,
1209,-0.325688,0.245872,-0.129358,-1.079471,1.120919,1.131954,-260.555423,-226.388134,-100.494749,
1210,-0.344954,0.270642,-0.110092,-1.323387,1.384668,1.639437,-183.512621,-223.303904,-125.735078,
1211,-0.344954,0.270642,-0.110092,-1.558525,1.558362,2.093896,-105.903328,-214.302988,-152.800768,
1212,-0.344954,0.270642,-0.110092,-1.685138,1.638796,2.415525,-43.27458,-203.476712,-172.942677,
1213,-0.36422,0.288991,-0.093578,-1.745519,1.655097,2.632979,2.170601,-179.243478,-177.411663,
1214,-0.36422,0.288991,-0.093578,-1.723708,1.669794,2.744117,28.29214,-141.918003,-170.739656,
1215,-0.36422,0.288991,-0.093578,-1.699502,1.744616,2.825528,41.636154,-97.416973,-156.262659,
1216,-0.383486,0.279817,-0.078899,-1.676893,1.874753,2.876143,49.126427,-53.293604,-144.492231,
1217,-0.383486,0.279817,-0.078899,-1.644707,2.042035,2.853915,54.791339,-19.555907,-141.282114,
1218,-0.395413,0.26789,-0.069725,-1.551078,2.158009,2.806782,58.064399,4.992045,-145.436383,
1219,-0.395413,0.26789,-0.069725,-1.392279,2.191679,2.732066,58.945607,21.986781,-148.583556,
1220,-0.395413,0.26789,-0.069725,-1.143043,2.172172,2.598433,56.239038,35.330795,-142.603927,
1221,-0.404587,0.256881,-0.070642,-0.901521,2.095212,2.40267,42.202645,47.604771,-121.266092,
1222,-0.404587,0.256881,-0.070642,-0.704154,2.006761,2.211996,16.332881,63.529468,-91.367946,
1223,-0.404587,0.256881,-0.070642,-0.563443,1.93568,2.04837,-10.669865,73.91514,-55.993719,
1224,-0.404587,0.237615,-0.076147,-0.455982,1.816232,1.92411,-33.329513,77.125256,-22.004247,
1225,-0.404587,0.237615,-0.076147,-0.359426,1.664984,1.868943,-52.212553,76.118161,6.949747,
1226,-0.399083,0.231193,-0.080734,-0.282288,1.474454,1.849393,-63.982981,77.691747,32.44185,
1227,-0.399083,0.231193,-0.080734,-0.249304,1.278046,1.831718,-69.270232,81.153638,56.926858,
1228,-0.399083,0.231193,-0.080734,-0.238931,1.089387,1.804403,-70.466157,86.81855,82.230131,
1229,-0.394495,0.23211,-0.083486,-0.228291,0.921037,1.747361,-67.633702,92.042858,105.896874,
1230,-0.394495,0.23211,-0.083486,-0.225099,0.773798,1.681214,-61.024638,97.015391,126.16467,
1231,-0.388073,0.243119,-0.090826,-0.238665,0.667176,1.625244,-47.240019,102.176755,140.389893,
1232,-0.388073,0.243119,-0.090826,-0.25223,0.597164,1.55749,-27.349884,104.505664,148.383713,
1233,-0.388073,0.243119,-0.090826,-0.264466,0.571243,1.519998,-1.102459,106.456911,151.656773,
1234,-0.377064,0.252294,-0.091743,-0.292129,0.575251,1.506876,32.698182,106.268081,149.516696,
1235,-0.377064,0.252294,-0.091743,-0.324315,0.58888,1.494825,69.645996,104.44272,139.256911,
1236,-0.377064,0.252294,-0.091743,-0.35783,0.602241,1.468848,103.887241,103.435625,128.052974,
1237,-0.366972,0.265138,-0.100917,-0.372992,0.613464,1.463224,127.616928,103.372681,124.150479,
1238,-0.366972,0.265138,-0.100917,-0.36581,0.627093,1.448495,137.687882,106.960459,127.738257,
1239,-0.356881,0.269725,-0.10367,-0.338944,0.6148,1.416895,138.38026,112.688314,136.550342,
1240,-0.356881,0.269725,-0.10367,-0.328039,0.5985,1.345392,134.855426,121.563343,149.579639,
1241,-0.356881,0.269725,-0.10367,-0.304631,0.578993,1.268533,129.631119,128.927728,162.357163,
1242,-0.349541,0.266055,-0.111009,-0.279894,0.54078,1.156056,126.609832,132.641393,171.735739,
1243,-0.349541,0.266055,-0.111009,-0.268988,0.504705,1.061255,128.875797,134.089092,176.519442,
1244,-0.349541,0.266055,-0.111009,-0.238931,0.463285,0.969399,134.225992,131.004863,177.778312,
1245,-0.333945,0.26422,-0.122018,-0.194776,0.402893,0.888255,142.660416,125.025233,177.21182,
1246,-0.333945,0.26422,-0.122018,-0.131735,0.31952,0.826661,153.99024,120.493304,174.001704,
1247,-0.319266,0.262385,-0.127523,-0.11418,0.254317,0.723022,165.886555,117.660848,169.406831,
1248,-0.319266,0.262385,-0.127523,-0.09689,0.172815,0.632773,174.572753,115.143109,164.560184,
1249,-0.319266,0.262385,-0.127523,-0.095826,0.081692,0.566894,180.678269,110.737067,160.028254,
1250,-0.305505,0.259633,-0.134862,-0.084388,0.009542,0.505567,185.021368,105.575703,155.936929,
1251,-0.305505,0.259633,-0.134862,-0.072419,-0.063143,0.478252,188.357372,100.225508,151.027339,
1252,-0.292661,0.256881,-0.143119,-0.050607,-0.137698,0.448794,193.455793,93.931161,145.173597,
1253,-0.292661,0.256881,-0.143119,-0.03651,-0.205038,0.434065,202.267878,89.210402,138.123928,
1254,-0.292661,0.256881,-0.143119,-0.021348,-0.273714,0.409962,213.220041,85.811454,130.193052,
1255,-0.279817,0.246789,-0.148624,-0.008846,-0.34239,0.39925,227.19349,83.797264,121.947458,
1256,-0.279817,0.246789,-0.148624,-0.012038,-0.399308,0.353456,242.299922,81.846016,113.575977,
1257,-0.279817,0.246789,-0.148624,0.002858,-0.445271,0.315964,255.580993,79.957712,106.022761,
1258,-0.272477,0.23578,-0.156881,0.012433,-0.486957,0.27258,265.714891,77.943521,99.476641,
1259,-0.272477,0.23578,-0.156881,0.024137,-0.520093,0.220359,271.50569,76.181104,93.056407,
1260,-0.263303,0.218349,-0.158716,0.042225,-0.551358,0.187955,273.016333,75.677557,88.20976,
1261,-0.263303,0.218349,-0.158716,0.062174,-0.596251,0.155819,271.820407,75.362839,84.055492,
1262,-0.263303,0.218349,-0.158716,0.065632,-0.634998,0.125825,266.847873,75.362839,80.845375,
1263,-0.259633,0.2,-0.165138,0.070952,-0.689512,0.081906,259.609375,75.866387,78.264693,
1264,-0.259633,0.2,-0.165138,0.081592,-0.758455,0.062357,249.979024,75.55167,75.369293,
1265,-0.259633,0.2,-0.165138,0.089571,-0.836484,0.035041,238.208596,75.614613,72.725668,
1266,-0.253211,0.180734,-0.16422,0.089837,-0.934555,-0.011557,223.605713,74.985178,68.76023,
1267,-0.253211,0.180734,-0.16422,0.093295,-1.041444,-0.059493,205.603881,72.845101,62.151166,
1268,-0.253211,0.180734,-0.16422,0.105531,-1.159556,-0.095914,183.573669,69.823814,55.164441,
1269,-0.253211,0.180734,-0.16422,0.112979,-1.263505,-0.128318,160.976965,66.11015,47.170621,
1270,-0.253211,0.180734,-0.16422,0.126013,-1.36024,-0.166613,136.995504,61.452333,39.617405,
1271,-0.240367,0.144037,-0.166972,0.148356,-1.423839,-0.195268,112.321666,55.409761,32.064189,
1272,-0.240367,0.144037,-0.166972,0.165912,-1.465258,-0.223923,88.717866,47.478884,24.825691,
1273,-0.23578,0.13211,-0.169725,0.187989,-1.48717,-0.230082,67.883579,38.163251,16.391266,
1274,-0.23578,0.13211,-0.169725,0.211929,-1.49679,-0.239991,49.755861,29.60294,7.830955,
