,,,,,,,,,,
,,,,,,,,,,
,,,,,,,,,,
,,,,,,,,,,
,,,,,,,,,,
,,,,,,,,,,
,,,,,,,,,,
,,,,,,,,,,
,,,,,,,,,,
index,Geomagnetism_X,Geomagnetism_Y,Geomagnetism_Z,Acceleration_X,Acceleration_Y,Acceleration_Z,Angular_velocity_X,Angular_velocity_Y,Angular_velocity_Z, 
1,-0.148624,0.349541,-0.088073,-0.222971,0.396212,0.958419,-202.647435,53.899118,-49.132881,
2,-0.148624,0.349541,-0.088073,-0.092634,0.403695,1.089374,-183.13496,76.306991,-56.182549,
3,-0.145872,0.351376,-0.089908,0.05313,0.397281,1.207742,-161.167691,89.90278,-55.238397,
4,-0.145872,0.351376,-0.089908,0.191181,0.376705,1.338697,-137.752722,98.903695,-46.803973,
5,-0.190826,0.346789,-0.070642,0.253158,0.399419,1.471794,-111.631184,105.135098,-34.089393,
6,-0.190826,0.346789,-0.070642,0.313272,0.429081,1.556687,-84.061946,109.729971,-22.130134,
7,-0.190826,0.346789,-0.070642,0.377909,0.42534,1.623637,-56.052104,113.065975,-12.122123,
8,-0.186239,0.355046,-0.069725,0.421798,0.409841,1.656844,-28.042262,114.010127,-2.680604,
9,-0.186239,0.355046,-0.069725,0.434831,0.40129,1.691123,-2.235441,111.177671,4.369065,
10,-0.186239,0.355046,-0.069725,0.429245,0.369757,1.67934,21.242471,104.568607,8.775107,
11,-0.177064,0.363303,-0.069725,0.405572,0.34063,1.618817,41.19555,98.022487,11.796393,
12,-0.177064,0.363303,-0.069725,0.412222,0.303486,1.596589,58.945607,94.308822,14.565906,
13,-0.170642,0.366055,-0.069725,0.436959,0.262601,1.58427,72.919057,90.972819,17.776023,
14,-0.170642,0.366055,-0.069725,0.488296,0.228664,1.547849,83.997106,83.293716,20.482592,
15,-0.170642,0.366055,-0.069725,0.554262,0.209424,1.53071,92.746248,70.516192,22.307952,
16,-0.163303,0.36055,-0.076147,0.618899,0.169341,1.498038,99.670029,51.570209,22.62267,
17,-0.163303,0.36055,-0.076147,0.666246,0.135136,1.439122,105.146111,31.617131,22.8115,
18,-0.156881,0.354128,-0.081651,0.678747,0.108414,1.41502,109.048606,10.656957,23.063274,
19,-0.156881,0.354128,-0.081651,0.677949,0.084097,1.352354,111.755175,-11.436199,22.496783,
20,-0.156881,0.354128,-0.081651,0.650552,0.056038,1.305489,111.440457,-33.088752,22.245009,
21,-0.155963,0.346789,-0.088073,0.628741,0.02611,1.25059,109.615097,-54.048926,21.552631,
22,-0.155963,0.346789,-0.088073,0.589906,0.000456,1.187121,106.279093,-72.554304,21.049083,
23,-0.155963,0.346789,-0.088073,0.544687,-0.018517,1.100889,102.061881,-89.926701,20.104931,
24,-0.154128,0.340367,-0.090826,0.49335,-0.031076,1.004749,96.145195,-108.935627,19.349609,
25,-0.154128,0.340367,-0.090826,0.426851,-0.04898,0.897896,86.766619,-127.69278,17.964853,
26,-0.161468,0.333028,-0.091743,0.340138,-0.071159,0.764263,74.492643,-142.862155,16.831871,
27,-0.161468,0.333028,-0.091743,0.25236,-0.083452,0.62822,62.407498,-153.184883,13.244093,
28,-0.161468,0.333028,-0.091743,0.181605,-0.112579,0.520564,49.00054,-156.395,9.845146,
29,-0.166972,0.324771,-0.092661,0.094359,-0.149456,0.380772,32.698182,-158.157417,6.068538,
30,-0.166972,0.324771,-0.092661,0.015625,-0.194616,0.25196,12.052726,-157.905643,3.991404,
31,-0.166972,0.324771,-0.092661,-0.063375,-0.254741,0.129039,-14.068813,-151.800127,4.369065,
32,-0.180734,0.320183,-0.089908,-0.18919,-0.296695,0.047895,-43.211637,-141.666229,6.760916,
33,-0.180734,0.320183,-0.089908,-0.295853,-0.312996,-0.001648,-72.920953,-129.14048,7.01269,
34,-0.194495,0.318349,-0.084404,-0.387089,-0.314064,-0.065385,-103.259703,-104.844302,4.557895,
35,-0.194495,0.318349,-0.084404,-0.431776,-0.270507,-0.03673,-131.458375,-70.351283,2.417817,
36,-0.194495,0.318349,-0.084404,-0.416615,-0.20771,-0.011557,-156.887535,-33.403469,-0.162865,
37,-0.202752,0.322018,-0.078899,-0.345594,-0.127543,0.069319,-181.183713,0.837776,-2.114112,
38,-0.202752,0.322018,-0.078899,-0.28282,-0.036688,0.207237,-199.059657,31.617131,-3.184151,
39,-0.20367,0.333028,-0.070642,-0.263934,0.070736,0.342744,-209.885933,60.508181,-4.568908,
40,-0.20367,0.333028,-0.070642,-0.19451,0.166668,0.486554,-216.872658,85.119076,-8.660233,
41,-0.20367,0.333028,-0.070642,-0.137587,0.273023,0.664641,-216.809714,109.226424,-13.192162,
42,-0.205505,0.344037,-0.06422,-0.138385,0.380714,0.856922,-208.123516,128.864785,-20.430661,
43,-0.205505,0.344037,-0.06422,-0.055927,0.460079,1.018674,-194.401841,141.831139,-32.515806,
44,-0.205505,0.344037,-0.06422,0.128673,0.4542,1.154182,-178.917748,150.58028,-39.628418,
45,-0.19633,0.363303,-0.061468,0.301568,0.423736,1.330663,-160.475313,153.85334,-36.04064,
46,-0.19633,0.363303,-0.061468,0.427383,0.428546,1.495092,-139.766913,151.146771,-26.032629,
47,-0.189908,0.372477,-0.058716,0.522875,0.477715,1.624173,-117.044322,139.942835,-15.709901,
48,-0.189908,0.372477,-0.058716,0.628475,0.499895,1.716296,-92.49637,125.214064,-4.380077,
49,-0.189908,0.372477,-0.058716,0.684067,0.515661,1.801457,-66.626606,108.911706,5.753821,
50,-0.182569,0.385321,-0.055963,0.684599,0.53303,1.871621,-40.568011,87.636815,14.565906,
51,-0.182569,0.385321,-0.055963,0.63672,0.543719,1.886885,-13.061717,64.410676,19.853157,
52,-0.182569,0.385321,-0.055963,0.546549,0.555477,1.882868,12.996878,44.772315,22.8115,
53,-0.173394,0.390826,-0.053211,0.465953,0.545857,1.847519,38.929585,30.484148,23.440935,
54,-0.173394,0.390826,-0.053211,0.405572,0.523677,1.800118,62.281611,23.308593,23.189161,
55,-0.16789,0.390826,-0.055046,0.39307,0.487335,1.742808,83.241785,17.07719,23.503878,
56,-0.16789,0.390826,-0.055046,0.41302,0.442175,1.70853,101.68422,8.957483,24.070369,
57,-0.16789,0.390826,-0.055046,0.423128,0.428814,1.651221,118.804843,-0.295206,24.070369,
58,-0.16422,0.388073,-0.059633,0.446269,0.400221,1.589091,132.02297,-10.114387,23.629765,
59,-0.16422,0.388073,-0.059633,0.464091,0.351052,1.524818,144.54872,-19.996511,23.692708,
60,-0.161468,0.380734,-0.065138,0.47473,0.303486,1.473133,154.367901,-30.382183,24.63686,
61,-0.161468,0.380734,-0.065138,0.463825,0.264739,1.409128,161.417569,-41.397289,25.140408,
62,-0.161468,0.380734,-0.065138,0.449195,0.23962,1.334412,166.578933,-52.223565,25.89573,
63,-0.163303,0.369725,-0.068807,0.430043,0.216105,1.267194,170.481428,-62.861011,26.147504,
64,-0.163303,0.369725,-0.068807,0.407966,0.180297,1.200243,172.747393,-74.190834,26.588108,
65,-0.163303,0.369725,-0.068807,0.369397,0.155712,1.139185,173.25094,-86.213036,25.958673,
66,-0.166972,0.36055,-0.073394,0.344925,0.115629,1.030458,173.376827,-97.983464,23.503878,
67,-0.166972,0.36055,-0.073394,0.309814,0.081157,0.903252,172.306788,-112.271631,20.923196,
68,-0.170642,0.349541,-0.076147,0.278161,0.01649,0.775511,165.571837,-126.496854,18.027797,
69,-0.170642,0.349541,-0.076147,0.24438,-0.058333,0.603583,153.99024,-139.903812,14.188245,
70,-0.170642,0.349541,-0.076147,0.211397,-0.135026,0.477716,136.240183,-153.436657,9.467485,
71,-0.178899,0.337615,-0.079817,0.16804,-0.198624,0.31891,115.217065,-166.906559,4.998499,
72,-0.178899,0.337615,-0.079817,0.090103,-0.273714,0.145375,88.151375,-178.047552,0.340683,
73,-0.178899,0.337615,-0.079817,0.015891,-0.364035,-0.011021,53.847187,-187.300242,-5.513059,
74,-0.188991,0.323853,-0.081651,-0.053533,-0.453554,-0.147867,13.752199,-190.006811,-9.793215,
75,-0.188991,0.323853,-0.081651,-0.175358,-0.501655,-0.22553,-30.937661,-185.474881,-10.296763,
76,-0.201835,0.315596,-0.077982,-0.291331,-0.524903,-0.28391,-79.40413,-178.36227,-10.989141,
77,-0.201835,0.315596,-0.077982,-0.374322,-0.513412,-0.320063,-129.192411,-163.570555,-12.877445,
78,-0.201835,0.315596,-0.077982,-0.470611,-0.438056,-0.317921,-174.574649,-130.839953,-13.318049,
79,-0.218349,0.312844,-0.070642,-0.502796,-0.303376,-0.269717,-212.340728,-91.500287,-16.96877,
80,-0.218349,0.312844,-0.070642,-0.463961,-0.155602,-0.164739,-245.323104,-51.468243,-19.675339,
81,-0.22844,0.324771,-0.059633,-0.421136,-0.030542,-0.017984,-268.171582,-15.527525,-19.234735,
82,-0.22844,0.324771,-0.059633,-0.440022,0.131128,0.185277,-278.809028,20.602024,-18.982961,
83,-0.22844,0.324771,-0.059633,-0.465025,0.294935,0.392823,-280.571445,56.605687,-23.389004,
84,-0.230275,0.341284,-0.050459,-0.515032,0.475845,0.616169,-267.479204,94.182935,-31.005163,
85,-0.230275,0.341284,-0.050459,-0.571157,0.625756,0.816217,-244.756613,128.04652,-44.600951,
86,-0.230275,0.341284,-0.050459,-0.483911,0.693898,0.994304,-220.334548,154.923379,-63.421048,
87,-0.229358,0.355046,-0.041284,-0.27218,0.667176,1.142398,-196.667805,175.128232,-73.869663,
88,-0.229358,0.355046,-0.041284,-0.022412,0.573648,1.290492,-173.630497,187.905755,-71.729585,
89,-0.225688,0.370642,-0.036697,0.187989,0.530358,1.454119,-151.096737,191.682363,-62.791613,
90,-0.225688,0.370642,-0.036697,0.364609,0.534099,1.634349,-125.164029,186.395112,-50.077033,
91,-0.225688,0.370642,-0.036697,0.542825,0.546926,1.762894,-96.398865,173.428758,-35.725923,
92,-0.216514,0.379817,-0.033028,0.688855,0.545055,1.859034,-68.074306,152.090923,-21.123039,
93,-0.216514,0.379817,-0.033028,0.755886,0.533565,1.920628,-40.882729,124.458742,-8.597289,
94,-0.216514,0.379817,-0.033028,0.762004,0.535702,1.933215,-15.768286,88.958628,2.354874,
95,-0.206422,0.389908,-0.037615,0.652148,0.563226,1.909113,7.143135,60.256408,14.565906,
96,-0.206422,0.389908,-0.037615,0.487498,0.581932,1.880726,32.949956,39.170347,20.986139,
97,-0.197248,0.390826,-0.040367,0.364609,0.581398,1.832522,56.616699,25.574558,22.245009,
98,-0.197248,0.390826,-0.040367,0.312474,0.543986,1.791013,78.961629,14.748282,20.104931,
99,-0.197248,0.390826,-0.040367,0.289067,0.514057,1.727008,99.921803,6.062084,18.09074,
100,-0.19633,0.388073,-0.042202,0.280289,0.48974,1.663807,117.545973,-1.679962,15.761832,
101,-0.19633,0.388073,-0.042202,0.283481,0.483861,1.640241,136.114296,-8.918461,12.488772,
102,-0.193578,0.387156,-0.045872,0.318592,0.454734,1.580521,153.297862,-17.038168,8.019786,
103,-0.193578,0.387156,-0.045872,0.366471,0.402359,1.510357,169.222558,-27.738557,3.865517,
104,-0.193578,0.387156,-0.045872,0.383228,0.347044,1.412342,182.125969,-39.697815,1.788382,
105,-0.193578,0.375229,-0.052294,0.377111,0.293599,1.328788,191.945149,-50.146431,1.410722,
106,-0.193578,0.375229,-0.052294,0.366471,0.255119,1.226756,198.931874,-60.091498,1.725439,
107,-0.193578,0.375229,-0.052294,0.346255,0.194994,1.107316,203.715577,-72.176644,1.033061,
108,-0.194495,0.361468,-0.058716,0.319922,0.121775,0.990287,206.29626,-84.702393,-0.288752,
109,-0.194495,0.361468,-0.058716,0.271245,0.037867,0.815145,202.645539,-96.158104,-4.191247,
110,-0.198165,0.348624,-0.06422,0.247572,-0.054057,0.656875,190.308619,-108.054419,-7.33842,
111,-0.198165,0.348624,-0.06422,0.193575,-0.138232,0.493516,172.117958,-115.104087,-7.464307,
112,-0.198165,0.348624,-0.06422,0.133194,-0.206374,0.343816,146.499967,-120.139564,-9.16378,
113,-0.206422,0.33578,-0.066055,0.098881,-0.296695,0.209647,115.720613,-126.182137,-11.052084,
114,-0.206422,0.33578,-0.066055,0.095423,-0.390223,0.058607,76.632721,-131.847049,-13.129219,
115,-0.206422,0.33578,-0.066055,0.068558,-0.470389,-0.042354,33.327617,-135.308939,-11.996236,
116,-0.215596,0.322018,-0.066972,-0.014964,-0.496845,-0.112785,-14.131756,-139.777925,-9.730272,
117,-0.215596,0.322018,-0.066972,-0.129607,-0.465579,-0.131264,-61.087581,-141.036795,-10.359706,
118,-0.223853,0.314679,-0.066055,-0.206214,-0.410799,-0.152152,-104.581516,-132.917088,-11.996236,
119,-0.223853,0.314679,-0.066055,-0.2908,-0.325288,-0.121355,-141.781104,-111.642196,-12.24801,
120,-0.223853,0.314679,-0.066055,-0.347988,-0.198892,-0.072883,-171.993967,-84.387676,-14.325145,
121,-0.23578,0.317431,-0.06055,-0.382035,-0.083719,-0.018252,-194.968332,-51.531187,-15.584014,
122,-0.23578,0.317431,-0.06055,-0.369268,0.010076,0.111096,-210.578311,-16.723451,-12.24801,
123,-0.242202,0.327523,-0.051376,-0.359426,0.100397,0.257048,-217.439149,18.52489,-7.086646,
124,-0.242202,0.327523,-0.051376,-0.36581,0.207821,0.446919,-217.753866,52.451418,-3.058264,
125,-0.242202,0.327523,-0.051376,-0.359692,0.322192,0.637593,-212.466615,84.615529,-2.239999,
126,-0.244037,0.338532,-0.042202,-0.297183,0.422935,0.818091,-199.500261,115.33194,-3.750642,
127,-0.244037,0.338532,-0.042202,-0.163389,0.441373,0.994037,-183.072017,141.831139,-2.554717,
128,-0.244037,0.338532,-0.042202,0.007113,0.431486,1.165429,-164.629582,160.525348,3.802573,
129,-0.240367,0.352294,-0.036697,0.132928,0.446183,1.336554,-144.298842,171.351624,15.510058,
130,-0.240367,0.352294,-0.036697,0.215386,0.490275,1.502591,-122.898064,173.491702,27.406373,
131,-0.22844,0.365138,-0.03211,0.289067,0.558951,1.627654,-96.461809,168.204451,34.015437,
132,-0.22844,0.365138,-0.03211,0.354501,0.596362,1.716832,-69.396119,157.944666,36.029628,
133,-0.22844,0.365138,-0.03211,0.414084,0.605982,1.781372,-43.526354,143.090008,35.085476,
134,-0.219266,0.373394,-0.038532,0.462229,0.581932,1.822345,-19.230177,122.948099,34.141324,
135,-0.219266,0.373394,-0.038532,0.48138,0.5504,1.853946,3.366527,101.987925,34.581928,
136,-0.219266,0.373394,-0.038532,0.476592,0.543452,1.854214,24.389645,82.09779,35.651967,
137,-0.207339,0.379817,-0.03945,0.463825,0.546926,1.830379,44.720384,64.536563,34.456041,
138,-0.207339,0.379817,-0.03945,0.449195,0.542383,1.80226,64.169915,47.352997,30.490603,
139,-0.2,0.379817,-0.041284,0.465687,0.516997,1.752985,82.42352,28.469958,25.077465,
140,-0.2,0.379817,-0.041284,0.456377,0.479586,1.711744,99.481199,10.090466,21.426744,
141,-0.2,0.379817,-0.041284,0.443077,0.461682,1.673716,114.713517,-8.037252,18.720175,
142,-0.195413,0.379817,-0.047706,0.419404,0.43496,1.61105,127.805758,-23.458401,16.076549,
143,-0.195413,0.379817,-0.047706,0.412754,0.407703,1.520266,140.772112,-35.41766,14.754736,
144,-0.192661,0.376147,-0.051376,0.378973,0.363879,1.464831,152.290766,-43.852084,16.139493,
145,-0.192661,0.376147,-0.051376,0.343063,0.332881,1.383419,160.976965,-51.090583,17.587192,
146,-0.192661,0.376147,-0.051376,0.309016,0.294935,1.299598,168.215463,-55.307795,19.916101,
147,-0.197248,0.366055,-0.055963,0.274969,0.267411,1.214973,173.880375,-59.21029,21.678518,
148,-0.197248,0.366055,-0.055963,0.231878,0.21851,1.144005,177.78287,-61.224481,22.937387,
149,-0.197248,0.366055,-0.055963,0.196235,0.173082,1.066075,178.915852,-62.48335,22.685613,
150,-0.198165,0.355046,-0.059633,0.172561,0.10788,0.997786,178.664078,-63.616332,21.552631,
151,-0.198165,0.355046,-0.059633,0.150484,0.06646,0.90834,176.020453,-64.686371,19.664327,
152,-0.200917,0.33945,-0.06422,0.133726,0.031988,0.829875,171.173806,-66.952336,16.768927,
153,-0.200917,0.33945,-0.06422,0.126013,-0.022792,0.726503,162.739382,-68.966527,14.754736,
154,-0.200917,0.33945,-0.06422,0.133992,-0.082115,0.6234,149.521254,-72.428417,12.740545,
155,-0.206422,0.327523,-0.06789,0.133992,-0.129414,0.53449,132.211801,-79.163368,10.474581,
156,-0.206422,0.327523,-0.06789,0.120693,-0.183126,0.42121,113.328761,-86.590697,7.390351,
157,-0.206422,0.327523,-0.06789,0.106595,-0.241647,0.318107,91.550322,-94.962178,2.984308,
158,-0.211927,0.317431,-0.07156,0.047544,-0.295359,0.206969,66.372936,-98.99056,0.214796,
159,-0.211927,0.317431,-0.07156,-0.014698,-0.343192,0.108418,37.418942,-100.249429,-2.743547,
160,-0.215596,0.311009,-0.070642,-0.061513,-0.397438,0.015491,6.828418,-99.619994,-2.743547,
161,-0.215596,0.311009,-0.070642,-0.097954,-0.436719,-0.081988,-30.245283,-96.598708,0.151852,
162,-0.215596,0.311009,-0.070642,-0.178816,-0.442866,-0.101805,-69.459062,-88.290171,4.494952,
163,-0.220183,0.305505,-0.06789,-0.27883,-0.395834,-0.112785,-108.10635,-75.38676,5.816764,
164,-0.220183,0.305505,-0.06789,-0.323517,-0.330365,-0.129389,-144.110012,-55.370738,1.599552,
165,-0.231193,0.307339,-0.061468,-0.345062,-0.240578,-0.113857,-176.085292,-27.61267,-2.554717,
166,-0.231193,0.307339,-0.061468,-0.395601,-0.125405,0.029953,-199.752035,5.432649,-6.771929,
167,-0.231193,0.307339,-0.061468,-0.500669,0.05203,0.196793,-213.158993,39.862725,-14.828692,
168,-0.23578,0.314679,-0.056881,-0.516362,0.201675,0.331764,-218.886849,69.57204,-29.116859,
169,-0.23578,0.314679,-0.056881,-0.411029,0.290392,0.442366,-218.00564,97.959543,-38.747209,
170,-0.23578,0.314679,-0.056881,-0.305163,0.334484,0.629292,-213.599598,125.277007,-41.076117,
171,-0.23211,0.327523,-0.050459,-0.178284,0.369223,0.794793,-205.29106,143.908273,-41.516722,
172,-0.23211,0.327523,-0.050459,0.008443,0.380446,0.95467,-194.716558,155.867531,-39.565474,
173,-0.227523,0.343119,-0.044954,0.184531,0.381515,1.146683,-179.295409,163.735465,-31.068106,
174,-0.227523,0.343119,-0.044954,0.335882,0.37243,1.321825,-160.349426,168.01562,-18.668244,
175,-0.227523,0.343119,-0.044954,0.464889,0.403427,1.521337,-137.752722,164.301956,-5.89072,
176,-0.220183,0.356881,-0.045872,0.555858,0.45901,1.649346,-112.260618,148.377259,6.194425,
177,-0.220183,0.356881,-0.045872,0.57501,0.520738,1.759948,-86.264967,126.032329,16.013606,
178,-0.220183,0.356881,-0.045872,0.528195,0.56002,1.808152,-59.325164,102.743247,21.615574,
179,-0.211009,0.363303,-0.044954,0.452121,0.570709,1.82181,-32.825965,82.475451,25.392182,
180,-0.211009,0.363303,-0.044954,0.392538,0.565364,1.828505,-6.767371,67.243132,26.776938,
181,-0.211009,0.363303,-0.044954,0.356629,0.532763,1.815918,17.717637,57.109234,27.658147,
182,-0.211009,0.363303,-0.044954,0.351043,0.515661,1.797976,40.754946,47.919488,26.273391,
183,-0.211009,0.363303,-0.044954,0.375249,0.493749,1.781104,62.09278,38.981516,24.44803,
184,-0.194495,0.376147,-0.050459,0.411956,0.459544,1.741737,81.542311,26.51871,21.867348,
185,-0.194495,0.376147,-0.050459,0.445737,0.425607,1.692462,99.166482,12.482317,19.412553,
186,-0.191743,0.370642,-0.053211,0.455313,0.394609,1.630332,116.601821,-1.931736,18.594288,
187,-0.191743,0.370642,-0.053211,0.456377,0.369757,1.551063,131.519423,-16.53462,16.894814,
188,-0.191743,0.370642,-0.053211,0.444939,0.340096,1.484648,144.73755,-29.123313,15.510058,
189,-0.187156,0.366972,-0.056881,0.440151,0.294134,1.414752,155.374996,-42.341441,14.251189,
190,-0.187156,0.366972,-0.056881,0.419936,0.256188,1.321022,162.865268,-54.741304,13.747641,
191,-0.187156,0.366972,-0.056881,0.392804,0.223854,1.223007,168.719011,-68.588866,11.92228,
192,-0.188073,0.357798,-0.063303,0.350511,0.183771,1.130615,172.873279,-81.618163,9.530429,
193,-0.188073,0.357798,-0.063303,0.290131,0.151971,1.03019,175.328075,-92.885044,5.502047,
194,-0.191743,0.345872,-0.06789,0.22443,0.111888,0.911018,174.69864,-103.648376,2.166043,
195,-0.191743,0.345872,-0.06789,0.190117,0.031721,0.751409,169.033728,-113.026953,-0.036978,
196,-0.191743,0.345872,-0.06789,0.156602,-0.035886,0.609474,157.766848,-117.747712,-0.036978,
197,-0.199083,0.334862,-0.070642,0.110319,-0.106165,0.496998,142.597473,-119.69896,0.907174,
198,-0.199083,0.334862,-0.070642,0.067228,-0.171101,0.351582,120.693147,-122.78319,-0.540526,
199,-0.199083,0.334862,-0.070642,0.039033,-0.22695,0.242051,93.753344,-126.496854,-3.750642,
200,-0.205505,0.322936,-0.07156,-0.017092,-0.308453,0.132253,61.90395,-127.252176,-6.457211,
201,-0.205505,0.322936,-0.07156,-0.089974,-0.394766,0.027007,24.641419,-126.182137,-9.226724,
202,-0.205505,0.322936,-0.07156,-0.120564,-0.463174,-0.066456,-14.950021,-120.328394,-8.849063,
203,-0.205505,0.322936,-0.07156,-0.166048,-0.474131,-0.105823,-57.814521,-110.194497,-6.331325,
204,-0.205505,0.322936,-0.07156,-0.233877,-0.427634,-0.102877,-100.30136,-94.45863,-1.673508,
205,-0.221101,0.310092,-0.066055,-0.306759,-0.329831,-0.065117,-138.4451,-71.861926,0.340683,
206,-0.221101,0.310092,-0.066055,-0.333624,-0.214391,-0.024143,-170.672154,-43.033819,-1.044073,
207,-0.231193,0.313761,-0.06055,-0.322453,-0.112579,0.068248,-194.464784,-15.149864,-3.687699,
208,-0.231193,0.313761,-0.06055,-0.344796,0.000723,0.218485,-208.438233,17.958399,-4.820681,
209,-0.231193,0.313761,-0.06055,-0.392675,0.134067,0.380236,-213.347824,49.996623,-8.219628,
210,-0.23578,0.325688,-0.051376,-0.372726,0.26661,0.537971,-212.026011,76.684652,-14.451032,
211,-0.23578,0.325688,-0.051376,-0.322719,0.357732,0.696777,-204.283965,101.295547,-19.360622,
212,-0.23578,0.325688,-0.051376,-0.282022,0.423736,0.879418,-189.932855,124.206968,-24.333156,
213,-0.233028,0.337615,-0.047706,-0.163921,0.452864,1.04599,-174.889366,141.831139,-29.998067,
214,-0.233028,0.337615,-0.047706,0.045948,0.437899,1.201047,-157.202253,154.671606,-29.431576,
215,-0.226606,0.350459,-0.046789,0.253956,0.41278,1.374582,-137.186231,160.0218,-20.367717,
216,-0.226606,0.350459,-0.046789,0.4077,0.427477,1.554277,-114.841301,156.685796,-7.33842,
217,-0.226606,0.350459,-0.046789,0.538569,0.456872,1.704245,-90.419236,142.712347,5.690877,
218,-0.220183,0.359633,-0.043119,0.630603,0.488404,1.794762,-64.864189,124.332855,18.657231,
219,-0.220183,0.359633,-0.043119,0.604801,0.532229,1.864122,-37.798499,102.554416,30.679433,
220,-0.209174,0.366972,-0.043119,0.506384,0.583001,1.898133,-10.481035,81.090695,37.854988,
221,-0.209174,0.366972,-0.043119,0.412488,0.605448,1.893045,17.780581,66.676641,40.058009,
222,-0.209174,0.366972,-0.043119,0.364609,0.595293,1.877512,46.545745,59.123425,39.491518,
223,-0.200917,0.37156,-0.049541,0.369131,0.542383,1.829576,71.786074,51.633153,37.917932,
224,-0.200917,0.37156,-0.049541,0.396794,0.498024,1.798511,94.823382,41.436311,37.540271,
225,-0.200917,0.37156,-0.049541,0.430309,0.450726,1.737988,115.091178,29.41411,37.477327,
226,-0.193578,0.369725,-0.051376,0.459569,0.414116,1.67934,133.407727,15.944208,35.840797,
227,-0.193578,0.369725,-0.051376,0.47207,0.3743,1.586413,148.577102,1.907815,33.826606,
228,-0.189908,0.366972,-0.055963,0.483508,0.318184,1.518927,159.718095,-12.380351,32.630681,
229,-0.189908,0.366972,-0.055963,0.495212,0.257791,1.445549,166.641876,-27.109122,31.686529,
230,-0.189908,0.366972,-0.055963,0.47739,0.207821,1.327181,170.103767,-42.656158,30.99415,
231,-0.186239,0.359633,-0.061468,0.451589,0.159721,1.233986,171.110862,-57.825533,28.476412,
232,-0.186239,0.359633,-0.061468,0.401848,0.133533,1.128473,169.222558,-72.617248,24.070369,
233,-0.186239,0.359633,-0.061468,0.345989,0.091846,0.998321,164.501799,-88.793718,18.846062,
234,-0.189908,0.345872,-0.07156,0.298111,0.036264,0.8596,154.430844,-103.837207,14.314132,
235,-0.189908,0.345872,-0.07156,0.231346,-0.030542,0.724629,140.331508,-117.558882,8.900994,
236,-0.194495,0.337615,-0.07156,0.171498,-0.082383,0.595281,122.518507,-127.629836,2.921365,
237,-0.194495,0.337615,-0.07156,0.107393,-0.146249,0.453614,100.614181,-134.05007,-2.42883,
238,-0.194495,0.337615,-0.07156,0.030255,-0.215459,0.321856,74.366756,-137.637847,-7.779024,
239,-0.202752,0.324771,-0.072477,-0.029594,-0.292152,0.17885,43.902119,-140.155586,-11.366802,
240,-0.202752,0.324771,-0.072477,-0.097156,-0.346666,0.084584,9.660874,-136.882526,-12.122123,
241,-0.208257,0.318349,-0.070642,-0.178018,-0.360294,0.026471,-26.091014,-128.762819,-12.310954,
242,-0.208257,0.318349,-0.070642,-0.224301,-0.345597,-0.021733,-63.038829,-119.321299,-12.625671,
243,-0.208257,0.318349,-0.070642,-0.258082,-0.307384,-0.012628,-97.21713,-105.221963,-13.69571,
244,-0.221101,0.313761,-0.066972,-0.310483,-0.243251,0.014956,-126.800559,-85.898319,-15.709901,
245,-0.221101,0.313761,-0.066972,-0.332827,-0.172704,0.04736,-152.229719,-62.042746,-19.423565,
246,-0.221101,0.313761,-0.066972,-0.303833,-0.090132,0.118863,-172.875176,-36.865359,-21.060095,
247,-0.229358,0.319266,-0.061468,-0.289204,0.004732,0.246336,-187.100399,-9.9885,-19.801226,
248,-0.229358,0.319266,-0.061468,-0.319793,0.118568,0.430047,-192.828254,17.391908,-19.738283,
249,-0.233945,0.32844,-0.051376,-0.317665,0.22813,0.580016,-191.317611,41.813972,-24.207269,
250,-0.233945,0.32844,-0.051376,-0.2509,0.302952,0.738554,-184.079112,66.173093,-26.473233,
251,-0.233945,0.32844,-0.051376,-0.1985,0.363077,0.915303,-170.42038,91.098706,-25.403195,
252,-0.234862,0.340367,-0.045872,-0.138917,0.398617,1.083214,-154.558627,108.722876,-23.577834,
253,-0.234862,0.340367,-0.045872,-0.039967,0.422133,1.235593,-136.116192,122.696325,-19.423565,
254,-0.234862,0.340367,-0.045872,0.090369,0.433891,1.369494,-115.093074,133.019053,-11.492689,
255,-0.229358,0.352294,-0.043119,0.233208,0.43977,1.49054,-92.370483,139.565174,-0.603469,
256,-0.229358,0.352294,-0.043119,0.356363,0.448321,1.618013,-68.074306,138.558078,12.803489,
257,-0.222936,0.362385,-0.040367,0.428447,0.481189,1.711208,-42.330428,127.794746,25.518069,
258,-0.222936,0.362385,-0.040367,0.440683,0.51192,1.789674,-16.712438,111.240614,36.847893,
259,-0.222936,0.362385,-0.040367,0.403976,0.535168,1.794494,10.038535,96.700674,43.5199,
260,-0.213761,0.365138,-0.043119,0.348117,0.53597,1.800386,36.223016,85.685568,45.030543,
261,-0.213761,0.365138,-0.043119,0.324976,0.522074,1.769321,60.330363,76.244048,43.771674,
262,-0.202752,0.369725,-0.046789,0.324444,0.478784,1.734774,81.668198,66.361924,42.0722,
263,-0.202752,0.369725,-0.046789,0.342531,0.426141,1.66836,100.110634,54.654439,41.065105,
264,-0.202752,0.369725,-0.046789,0.369663,0.380179,1.618549,114.587631,41.625142,38.358536,
265,-0.2,0.366972,-0.050459,0.399454,0.341165,1.567131,127.553984,27.022258,35.148419,
266,-0.2,0.366972,-0.050459,0.423926,0.305891,1.498842,136.995504,9.209257,29.735281,
267,-0.2,0.366972,-0.050459,0.439619,0.257524,1.433766,143.982229,-8.289026,23.063274,
268,-0.193578,0.356881,-0.057798,0.456643,0.214768,1.381277,147.63295,-28.053274,16.957758,
269,-0.193578,0.356881,-0.057798,0.449195,0.168806,1.304686,148.954763,-47.754579,12.299941,
270,-0.193578,0.351376,-0.063303,0.420734,0.127654,1.248448,147.381176,-65.315806,9.341598,
271,-0.193578,0.351376,-0.063303,0.39041,0.10788,1.18605,144.863437,-81.177559,5.690877,
272,-0.193578,0.351376,-0.063303,0.337478,0.095587,1.103299,141.968038,-95.465726,2.1031,
273,-0.197248,0.342202,-0.065138,0.282417,0.056038,1.007962,136.36607,-108.306193,-1.988225,
274,-0.197248,0.342202,-0.065138,0.220174,0.020765,0.902181,126.92455,-121.020773,-5.450116,
275,-0.197248,0.342202,-0.065138,0.15474,-0.030274,0.773636,114.965291,-133.231805,-9.100837,
276,-0.2,0.33211,-0.069725,0.103669,-0.082383,0.65018,103.761355,-139.966756,-13.947484,
277,-0.2,0.33211,-0.069725,0.04914,-0.127543,0.540917,89.662018,-144.121024,-17.787035,
278,-0.206422,0.321101,-0.072477,-0.026402,-0.162015,0.444777,71.156639,-144.058081,-20.304774,
279,-0.206422,0.321101,-0.072477,-0.097156,-0.181255,0.347565,50.8259,-141.980947,-23.514891,
280,-0.206422,0.321101,-0.072477,-0.155409,-0.211451,0.265082,27.977422,-136.756639,-26.536177,
281,-0.220183,0.314679,-0.063303,-0.204618,-0.238441,0.190366,3.24064,-128.007497,-28.424481,
282,-0.220183,0.314679,-0.063303,-0.222705,-0.292419,0.1119,-25.020976,-118.691864,-28.990972,
283,-0.229358,0.309174,-0.063303,-0.215257,-0.326891,0.062357,-54.982065,-105.725511,-28.676255,
284,-0.229358,0.309174,-0.063303,-0.230153,-0.319676,0.031559,-86.831458,-89.423153,-26.787951,
285,-0.229358,0.309174,-0.063303,-0.245049,-0.284403,0.016295,-117.359039,-73.309626,-26.662064,
286,-0.238532,0.311009,-0.055046,-0.250634,-0.227217,0.071462,-144.361786,-55.244851,-26.473233,
287,-0.238532,0.311009,-0.055046,-0.25888,-0.149723,0.143768,-166.266112,-33.655243,-25.592025,
288,-0.238532,0.311009,-0.055046,-0.280958,-0.047911,0.258655,-183.764395,-10.554991,-24.584929,
289,-0.245872,0.315596,-0.050459,-0.275106,0.053901,0.375416,-193.583576,12.104657,-23.955495,
290,-0.245872,0.315596,-0.050459,-0.253826,0.143955,0.511459,-197.486071,34.764304,-23.32606,
291,-0.246789,0.323853,-0.043119,-0.213927,0.201407,0.648038,-195.157162,57.738669,-21.185982,
292,-0.246789,0.323853,-0.043119,-0.134129,0.249507,0.780064,-189.429307,75.55167,-18.479413,
293,-0.246789,0.323853,-0.043119,-0.058587,0.302685,0.938334,-179.987787,91.665197,-11.618576,
294,-0.247706,0.337615,-0.03945,-0.014698,0.351854,1.101157,-165.32196,104.190946,-3.184151,
295,-0.247706,0.337615,-0.03945,0.036905,0.389265,1.240949,-149.586093,111.177671,4.620838,
296,-0.247706,0.337615,-0.03945,0.079464,0.450191,1.378867,-130.010676,115.961374,11.92228,
297,-0.243119,0.345872,-0.03945,0.098615,0.504437,1.510089,-105.840385,119.989756,16.580097,
298,-0.243119,0.345872,-0.03945,0.128673,0.545055,1.622834,-79.215299,120.115643,17.524249,
299,-0.23578,0.357798,-0.033028,0.173359,0.549064,1.699693,-49.946588,116.905526,19.286666,
300,-0.23578,0.357798,-0.033028,0.202885,0.53597,1.761019,-20.677876,112.184766,23.692708,
301,-0.23578,0.357798,-0.033028,0.228686,0.520204,1.774945,6.639588,106.142194,30.049998,
302,-0.227523,0.36055,-0.036697,0.25635,0.528487,1.778694,32.887013,100.225508,35.022532,
303,-0.227523,0.36055,-0.036697,0.288801,0.516462,1.782175,58.756777,94.371766,37.16261,
304,-0.218349,0.366972,-0.041284,0.337744,0.500696,1.754592,81.794085,83.860207,37.16261,
305,-0.218349,0.366972,-0.041284,0.401582,0.447252,1.709869,102.250711,67.809623,36.784949,
306,-0.218349,0.366972,-0.041284,0.432969,0.400221,1.653631,120.693147,48.423036,35.840797,
307,-0.214679,0.366055,-0.046789,0.446801,0.354259,1.587752,135.736635,29.351166,34.07838,
308,-0.214679,0.366055,-0.046789,0.446269,0.310701,1.519998,148.136498,12.35643,33.511889,
309,-0.214679,0.366055,-0.046789,0.438023,0.262869,1.435105,157.45213,-3.190606,32.945398,
310,-0.206422,0.358716,-0.052294,0.439619,0.226526,1.376992,164.124138,-19.115302,31.875359,
311,-0.206422,0.358716,-0.052294,0.41834,0.18965,1.307364,168.970785,-35.165886,31.057094,
312,-0.207339,0.350459,-0.058716,0.369663,0.163462,1.238539,172.558562,-49.265222,30.490603,
313,-0.207339,0.350459,-0.058716,0.303962,0.14636,1.203725,176.775774,-60.091498,28.350525,
314,-0.207339,0.350459,-0.058716,0.244912,0.138076,1.110798,180.678269,-67.141166,25.455125,
315,-0.205505,0.340367,-0.06422,0.167774,0.12712,1.042241,182.188912,-70.414226,23.126217,
316,-0.205505,0.340367,-0.06422,0.108989,0.085967,0.965917,181.748308,-70.162453,22.370896,
317,-0.205505,0.340367,-0.06422,0.068824,0.048556,0.895754,179.356456,-67.015279,22.056178,
318,-0.208257,0.32844,-0.066055,0.027595,-0.00088,0.843265,176.083396,-61.539198,21.993235,
319,-0.208257,0.32844,-0.066055,0.003656,-0.039894,0.782206,169.97788,-58.266138,21.17497,
320,-0.209174,0.317431,-0.069725,0.003656,-0.080512,0.701062,161.543456,-57.321986,19.349609,
321,-0.209174,0.317431,-0.069725,0.008177,-0.12113,0.656875,149.961858,-58.517912,15.887719,
322,-0.209174,0.317431,-0.069725,0.013231,-0.158808,0.574392,137.624939,-60.532102,12.048167,
323,-0.217431,0.30367,-0.074312,0.022009,-0.217864,0.498069,120.252542,-62.609237,8.775107,
324,-0.217431,0.30367,-0.074312,0.022275,-0.266766,0.412105,98.662934,-66.322901,5.942651,
325,-0.220183,0.291743,-0.074312,0.015891,-0.329029,0.336853,73.17083,-69.847735,5.18733,
326,-0.220183,0.291743,-0.074312,-0.004856,-0.370716,0.280347,43.965062,-71.673096,4.935556,
327,-0.220183,0.291743,-0.074312,-0.063375,-0.389154,0.218217,13.689256,-69.721848,4.935556,
328,-0.225688,0.288073,-0.075229,-0.107264,-0.411333,0.157158,-17.782477,-66.700562,4.683782,
329,-0.225688,0.288073,-0.075229,-0.162857,-0.402782,0.133324,-50.827796,-60.343272,5.816764,
330,-0.225688,0.288073,-0.075229,-0.214725,-0.397171,0.095832,-83.936059,-48.698731,6.131482,
331,-0.23211,0.287156,-0.072477,-0.249304,-0.36644,0.12529,-115.911339,-34.662338,5.56499,
332,-0.23211,0.287156,-0.072477,-0.288938,-0.297497,0.156087,-143.921182,-16.786394,3.613743,
333,-0.23578,0.287156,-0.069725,-0.2642,-0.221338,0.181528,-169.476228,1.08955,-0.225808,
334,-0.23578,0.287156,-0.069725,-0.209139,-0.146249,0.251424,-190.93995,20.979685,-0.666413,
335,-0.23578,0.287156,-0.069725,-0.217651,-0.045239,0.411034,-204.913399,42.946955,0.529513,
336,-0.233945,0.298165,-0.062385,-0.251432,0.083028,0.569304,-210.200651,65.417772,-1.799395,
337,-0.233945,0.298165,-0.062385,-0.233877,0.199537,0.69892,-208.690007,85.18202,-6.960759,
338,-0.233945,0.298165,-0.062385,-0.171634,0.281574,0.82559,-199.563205,106.016307,-9.289667,
339,-0.233945,0.310092,-0.058716,-0.121362,0.333415,0.983325,-187.66689,122.759269,-10.044989,
340,-0.233945,0.310092,-0.058716,-0.02587,0.356931,1.133025,-173.756384,135.662679,-10.42265,
341,-0.226606,0.325688,-0.056881,0.090103,0.37243,1.287011,-157.013422,145.230086,-6.897816,
342,-0.226606,0.325688,-0.056881,0.196501,0.391135,1.438854,-136.682683,147.873711,-0.603469,
343,-0.226606,0.325688,-0.056881,0.271777,0.433891,1.588823,-112.134732,146.048351,5.753821,
344,-0.217431,0.334862,-0.056881,0.349713,0.467026,1.695675,-84.31372,138.809852,10.411637,
345,-0.217431,0.334862,-0.056881,0.41568,0.49268,1.762894,-54.226743,125.591725,13.747641,
346,-0.208257,0.344037,-0.057798,0.460101,0.480655,1.805474,-25.398636,108.659932,16.517153,
347,-0.208257,0.344037,-0.057798,0.47207,0.462751,1.806545,2.044715,89.839836,19.349609,
348,-0.208257,0.344037,-0.057798,0.474198,0.436296,1.791013,26.592666,70.453249,20.860252,
349,-0.200917,0.351376,-0.059633,0.478454,0.392204,1.742273,48.874653,51.507266,21.3638,
350,-0.200917,0.351376,-0.059633,0.48404,0.34063,1.682553,66.247049,32.435396,20.797309,
351,-0.200917,0.351376,-0.059633,0.476858,0.299211,1.634885,79.213403,13.426469,19.160779,
352,-0.193578,0.350459,-0.06422,0.478188,0.237482,1.563114,90.102623,-5.960118,15.573001,
353,-0.193578,0.350459,-0.06422,0.477656,0.190986,1.475007,96.271082,-27.172066,11.041072,
354,-0.191743,0.349541,-0.06789,0.471804,0.149299,1.420108,100.425351,-47.251031,7.893899,
355,-0.191743,0.349541,-0.06789,0.439619,0.107612,1.359853,101.68422,-65.064032,5.627934,
356,-0.191743,0.349541,-0.06789,0.4077,0.093984,1.274157,100.23652,-80.296351,2.732534,
357,-0.189908,0.344954,-0.06789,0.367269,0.076347,1.203725,97.844669,-93.514478,0.6554,
358,-0.189908,0.344954,-0.06789,0.307952,0.053099,1.114547,94.256891,-103.648376,-0.7923,
359,-0.189908,0.344954,-0.06789,0.25236,0.021032,1.025369,88.025488,-110.509214,-1.295847,
360,-0.19633,0.333945,-0.069725,0.179477,0.008473,0.966185,81.605255,-112.271631,-1.295847,
361,-0.19633,0.333945,-0.069725,0.097285,0.017291,0.890933,75.625626,-111.768083,-1.736452,
362,-0.20367,0.32844,-0.070642,0.014561,0.016757,0.818895,70.841922,-108.872684,-4.317134,
363,-0.20367,0.32844,-0.070642,-0.062311,-0.006492,0.705883,64.106971,-100.186486,-6.646042,
364,-0.20367,0.32844,-0.070642,-0.11285,-0.048445,0.59662,53.217752,-88.730775,-8.597289,
365,-0.211927,0.322018,-0.066972,-0.156473,-0.088262,0.508513,40.125511,-74.820269,-8.534346,
366,-0.211927,0.322018,-0.066972,-0.164984,-0.134491,0.405142,23.256662,-59.147346,-8.093742,
367,-0.218349,0.320183,-0.065138,-0.162059,-0.179117,0.351314,4.562453,-45.488614,-6.583098,
368,-0.218349,0.320183,-0.065138,-0.164453,-0.21733,0.280882,-17.215986,-30.633956,-4.06536,
369,-0.218349,0.320183,-0.065138,-0.158335,-0.241113,0.231875,-41.071559,-17.164055,-3.184151,
370,-0.221101,0.316514,-0.065138,-0.140779,-0.232294,0.233481,-66.123058,-4.953023,-4.128303,
371,-0.221101,0.316514,-0.065138,-0.142375,-0.206107,0.264814,-89.22331,8.139218,-6.205438,
372,-0.221101,0.316514,-0.065138,-0.128011,-0.135026,0.29695,-109.805823,18.021342,-9.793215,
373,-0.223853,0.315596,-0.063303,-0.089176,-0.081848,0.337924,-126.800559,27.840523,-12.24801,
374,-0.223853,0.315596,-0.063303,-0.059917,-0.012103,0.438349,-137.752722,40.68099,-11.807406,
375,-0.223853,0.322018,-0.06055,-0.053799,0.067529,0.56127,-143.35469,50.814888,-12.562728,
376,-0.223853,0.322018,-0.06055,-0.046617,0.14823,0.692493,-143.102916,58.934595,-15.206353,
377,-0.223853,0.322018,-0.06055,-0.043159,0.216639,0.8122,-137.249174,67.93551,-18.290583,
378,-0.222936,0.329358,-0.058716,-0.001398,0.238551,0.915571,-129.444184,75.803443,-19.612396,
379,-0.222936,0.329358,-0.058716,0.06643,0.253783,1.022691,-120.632099,83.671377,-17.409374,
380,-0.222936,0.329358,-0.058716,0.153676,0.245499,1.134097,-110.372315,89.90278,-10.863254,
381,-0.217431,0.337615,-0.058716,0.208471,0.267946,1.249787,-99.168378,94.308822,-1.547621,
382,-0.217431,0.337615,-0.058716,0.246508,0.317382,1.356104,-84.691381,96.574787,6.886803,
383,-0.211927,0.344037,-0.054128,0.269383,0.368421,1.461082,-68.451967,97.204222,13.307037,
384,-0.211927,0.344037,-0.054128,0.289067,0.406901,1.540619,-49.568927,93.805275,16.768927,
385,-0.211927,0.344037,-0.054128,0.288801,0.431486,1.583467,-30.56,88.014476,19.160779,
386,-0.208257,0.354128,-0.054128,0.286939,0.441106,1.636491,-11.173413,81.90896,20.860252,
387,-0.208257,0.354128,-0.054128,0.29944,0.445114,1.67559,8.590835,75.55167,22.685613,
388,-0.201835,0.354128,-0.058716,0.302632,0.446717,1.704781,31.061652,70.264419,24.2592,
389,-0.201835,0.354128,-0.058716,0.290929,0.465957,1.748165,55.987264,63.529468,23.377991,
390,-0.201835,0.354128,-0.058716,0.319922,0.485732,1.753253,82.108802,53.39557,18.909005,
391,-0.194495,0.358716,-0.057798,0.380037,0.468897,1.733703,107.789736,40.366272,13.432924,
392,-0.194495,0.358716,-0.057798,0.444673,0.421331,1.687374,130.638214,25.008067,10.348694,
393,-0.194495,0.358716,-0.057798,0.4867,0.36949,1.628457,150.90601,6.062084,9.845146,
394,-0.187156,0.355963,-0.063303,0.501596,0.336355,1.559097,167.082481,-14.016882,9.215711,
395,-0.187156,0.355963,-0.063303,0.507448,0.281841,1.495092,178.349361,-34.095847,8.838051,
396,-0.186239,0.347706,-0.069725,0.508246,0.216639,1.391186,185.461973,-53.356547,7.453294,
397,-0.186239,0.347706,-0.069725,0.478188,0.162126,1.295045,188.483259,-73.246682,4.935556,
398,-0.186239,0.347706,-0.069725,0.448397,0.093717,1.207206,187.476163,-91.689118,0.214796,
399,-0.189908,0.33211,-0.075229,0.386154,0.045617,1.099015,183.133064,-108.557966,-4.191247,
400,-0.189908,0.33211,-0.075229,0.32737,-0.003018,0.976362,173.691545,-123.16085,-7.401363,
401,-0.189908,0.33211,-0.075229,0.266191,-0.072495,0.835231,161.102851,-135.87543,-9.226724,
402,-0.193578,0.318349,-0.077982,0.184265,-0.143309,0.720612,144.35989,-144.561629,-10.548537,
403,-0.193578,0.318349,-0.077982,0.116437,-0.216528,0.602779,126.043341,-147.457028,-11.492689,
404,-0.204587,0.305505,-0.078899,0.051534,-0.261956,0.502622,105.020224,-147.205254,-11.870349,
405,-0.204587,0.305505,-0.078899,-0.008048,-0.283334,0.408356,82.738237,-143.428646,-11.933293,
406,-0.204587,0.305505,-0.078899,-0.077739,-0.287877,0.319713,58.693833,-135.938374,-11.807406,
407,-0.215596,0.293578,-0.075229,-0.142641,-0.283868,0.284096,37.041281,-127.063345,-12.562728,
408,-0.215596,0.293578,-0.075229,-0.187328,-0.281196,0.207505,15.325786,-113.215783,-13.69571,
409,-0.226606,0.288073,-0.073394,-0.211267,-0.282799,0.165996,-6.956201,-96.850482,-14.765749,
410,-0.226606,0.288073,-0.073394,-0.19451,-0.291885,0.115381,-30.811774,-78.596877,-14.010427,
411,-0.226606,0.288073,-0.073394,-0.173762,-0.300971,0.093957,-54.289687,-59.902668,-11.052084,
412,-0.234862,0.285321,-0.066055,-0.178018,-0.291351,0.104669,-77.326995,-43.096763,-7.779024,
413,-0.234862,0.285321,-0.066055,-0.167644,-0.272912,0.146714,-99.042491,-26.353801,-5.764833,
414,-0.234862,0.285321,-0.066055,-0.166314,-0.248328,0.219824,-116.351944,-5.26774,-1.358791,
415,-0.238532,0.288991,-0.063303,-0.209671,-0.168428,0.328551,-128.059428,18.965494,2.29193,
416,-0.238532,0.288991,-0.063303,-0.226961,-0.076504,0.433261,-135.486757,42.569294,2.543704,
417,-0.242202,0.293578,-0.061468,-0.17988,-7.8E-05,0.537704,-138.508044,63.655355,2.480761,
418,-0.242202,0.293578,-0.061468,-0.150621,0.056573,0.670533,-136.871513,84.867302,5.37616,
419,-0.242202,0.293578,-0.061468,-0.137055,0.124715,0.82184,-131.584262,103.246794,7.390351,
420,-0.238532,0.306422,-0.056881,-0.072685,0.192055,0.956544,-123.968103,117.220244,8.586277,
421,-0.238532,0.306422,-0.056881,-0.005654,0.23962,1.114815,-111.882958,127.228255,10.978128,
422,-0.238532,0.306422,-0.056881,0.054194,0.260464,1.25059,-97.657735,132.515506,13.36998,
423,-0.233945,0.314679,-0.062385,0.124151,0.297607,1.382884,-81.733038,132.76728,14.188245,
424,-0.233945,0.314679,-0.062385,0.210865,0.322726,1.479828,-64.045924,127.605915,14.188245,
425,-0.222018,0.322936,-0.061468,0.285343,0.326735,1.580521,-45.666432,117.031413,15.887719,
426,-0.222018,0.322936,-0.061468,0.339606,0.335286,1.636224,-25.965128,102.491473,17.524249,
427,-0.222018,0.322936,-0.061468,0.372855,0.325666,1.683357,-6.704427,85.748511,18.468401,
428,-0.213761,0.326606,-0.062385,0.372323,0.34063,1.723527,14.507521,68.564945,19.790214,
429,-0.213761,0.326606,-0.062385,0.347319,0.358801,1.71951,35.971242,51.884927,18.405457,
430,-0.208257,0.32844,-0.066055,0.333222,0.348112,1.710672,56.616699,36.337891,16.139493,
431,-0.208257,0.32844,-0.066055,0.324444,0.318451,1.690319,75.940343,22.553272,15.132397,
432,-0.208257,0.32844,-0.066055,0.327636,0.273023,1.631939,93.50157,8.705709,15.132397,
433,-0.202752,0.329358,-0.070642,0.339872,0.225992,1.58427,108.670945,-5.078909,16.013606,
434,-0.202752,0.329358,-0.070642,0.360619,0.185107,1.528032,119.874882,-20.311228,16.705984,
435,-0.202752,0.329358,-0.070642,0.360353,0.138877,1.447156,128.875797,-34.410564,17.461305,
436,-0.202752,0.325688,-0.07156,0.341201,0.100665,1.359585,132.904179,-49.894657,16.202436,
437,-0.202752,0.325688,-0.07156,0.320986,0.049091,1.286208,134.981313,-63.301615,12.677602,
438,-0.2,0.314679,-0.074312,0.286939,0.021032,1.217651,135.736635,-72.239587,11.607563,
439,-0.2,0.314679,-0.074312,0.242784,-0.004621,1.142131,133.533614,-80.736955,10.411637,
440,-0.2,0.314679,-0.074312,0.203683,-0.021723,1.028047,128.812854,-88.730775,7.327407,
441,-0.206422,0.306422,-0.077982,0.147026,-0.044704,0.951188,124.343868,-96.535765,4.117291,
442,-0.206422,0.306422,-0.077982,0.08505,-0.078374,0.840854,117.797747,-102.137733,0.277739,
443,-0.206422,0.306422,-0.077982,0.049938,-0.127276,0.711506,108.167397,-105.159019,-2.932377,
444,-0.210092,0.298165,-0.077982,0.004985,-0.189004,0.576802,94.005117,-106.606719,-5.198342,
445,-0.210092,0.298165,-0.077982,-0.043159,-0.256612,0.449061,74.933247,-107.802645,-7.401363,
446,-0.213761,0.289908,-0.077982,-0.080399,-0.327158,0.316232,52.840091,-107.236154,-8.660233,
447,-0.213761,0.289908,-0.077982,-0.122691,-0.383542,0.205362,25.711458,-103.522489,-9.541441,
448,-0.213761,0.289908,-0.077982,-0.171634,-0.442598,0.13011,-4.186689,-94.143913,-10.044989,
449,-0.227523,0.283486,-0.073394,-0.18387,-0.469321,0.055929,-37.106121,-80.799898,-10.359706,
450,-0.227523,0.283486,-0.073394,-0.171102,-0.472794,0.026471,-71.850914,-64.560484,-8.78612,
451,-0.233945,0.282569,-0.068807,-0.17988,-0.420152,0.054323,-106.029215,-47.439862,-5.764833,
452,-0.233945,0.282569,-0.068807,-0.188924,-0.35201,0.071194,-136.682683,-30.759843,-4.505964,
453,-0.233945,0.282569,-0.068807,-0.188924,-0.252603,0.121808,-161.671239,-12.820956,-3.435925,
454,-0.23945,0.285321,-0.06789,-0.194776,-0.163886,0.213932,-179.232466,9.209257,-1.358791,
455,-0.23945,0.285321,-0.06789,-0.208341,-0.062608,0.325069,-191.002894,32.498339,-0.288752,
456,-0.23945,0.285321,-0.06789,-0.184402,0.024773,0.451204,-198.304336,53.332626,0.214796,
457,-0.236697,0.295413,-0.062385,-0.166048,0.092381,0.590996,-200.633244,72.970988,1.158948,
458,-0.236697,0.295413,-0.062385,-0.159133,0.17522,0.732931,-196.604862,92.546405,0.592457,
459,-0.238532,0.305505,-0.056881,-0.121362,0.247904,0.881025,-187.981607,111.051784,-1.484678,
460,-0.238532,0.305505,-0.056881,-0.054331,0.30509,1.037153,-176.022349,125.528781,-1.799395,
461,-0.238532,0.305505,-0.056881,0.023073,0.32433,1.172392,-160.664143,134.970301,-0.477582,
462,-0.233028,0.318349,-0.056881,0.102871,0.358,1.316737,-143.480577,138.998683,2.166043,
463,-0.233028,0.318349,-0.056881,0.175753,0.394342,1.458136,-123.90516,138.809852,5.313217,
464,-0.233028,0.318349,-0.056881,0.24571,0.415185,1.554009,-101.812003,132.326675,7.893899,
465,-0.222936,0.331193,-0.057798,0.315932,0.422133,1.638902,-79.718847,121.626286,10.474581,
466,-0.222936,0.331193,-0.057798,0.359821,0.429882,1.717635,-56.429765,108.030498,13.118206,
467,-0.214679,0.342202,-0.055046,0.374983,0.437899,1.764768,-33.140683,91.413423,14.125302,
468,-0.214679,0.342202,-0.055046,0.370195,0.457406,1.784853,-9.222166,74.041026,13.621754,
469,-0.214679,0.342202,-0.055046,0.384824,0.440304,1.784318,14.192803,57.990443,12.425828,
470,-0.208257,0.345872,-0.057798,0.381633,0.414116,1.788602,37.733659,43.009898,12.677602,
471,-0.208257,0.345872,-0.057798,0.378175,0.390868,1.747629,60.582137,28.281127,12.866432,
472,-0.199083,0.346789,-0.059633,0.378973,0.374567,1.726205,81.731142,14.370621,13.432924,
473,-0.199083,0.346789,-0.059633,0.381367,0.354526,1.663807,101.49539,0.90072,13.495867,
474,-0.199083,0.346789,-0.059633,0.392804,0.325666,1.610515,118.301295,-13.324503,12.048167,
475,-0.199083,0.344037,-0.06422,0.410626,0.27329,1.533656,131.64531,-27.864444,9.719259,
476,-0.199083,0.344037,-0.06422,0.416478,0.217975,1.448227,140.835056,-43.096763,7.390351,
477,-0.199083,0.344037,-0.06422,0.417542,0.157048,1.348605,146.940572,-59.084403,5.502047,
478,-0.197248,0.338532,-0.065138,0.399454,0.092648,1.278977,149.835971,-74.820269,4.369065,
479,-0.197248,0.338532,-0.065138,0.374185,0.040807,1.171857,150.654236,-89.73787,2.228987,
480,-0.2,0.330275,-0.075229,0.328434,-0.00569,1.015193,147.507063,-104.026037,0.151852,
481,-0.2,0.330275,-0.075229,0.262201,-0.056729,0.847014,138.065543,-116.740617,-2.80649,
482,-0.2,0.330275,-0.075229,0.205013,-0.121664,0.678835,125.602737,-125.804476,-4.883625,
483,-0.207339,0.316514,-0.074312,0.13479,-0.192746,0.507174,106.342037,-130.273462,-6.016607,
484,-0.207339,0.316514,-0.074312,0.078666,-0.272645,0.31891,79.15046,-134.05007,-7.023703,
485,-0.207339,0.316514,-0.074312,0.040895,-0.368845,0.166799,47.867557,-134.679505,-7.401363,
486,-0.215596,0.308257,-0.070642,-0.066833,-0.436719,0.071194,12.745104,-131.972936,-5.576003,
487,-0.215596,0.308257,-0.070642,-0.148493,-0.482682,-0.036462,-27.664601,-128.699875,-5.513059,
488,-0.215596,0.308257,-0.070642,-0.177752,-0.498715,-0.103948,-71.662083,-118.25126,-3.310038,
489,-0.215596,0.308257,-0.070642,-0.234409,-0.445003,-0.107697,-115.093074,-97.228143,-0.603469,
490,-0.215596,0.308257,-0.070642,-0.28548,-0.33277,-0.098324,-152.670323,-72.365474,-1.232904,
491,-0.236697,0.30367,-0.063303,-0.282288,-0.213856,-0.05253,-183.701452,-47.502805,-5.261286,
492,-0.236697,0.30367,-0.063303,-0.220045,-0.118458,0.026203,-207.368195,-24.906101,-7.212533,
493,-0.241284,0.307339,-0.055046,-0.216321,-0.013707,0.212057,-219.705114,1.026607,-2.491773,
494,-0.241284,0.307339,-0.055046,-0.313143,0.150635,0.409427,-223.167004,28.407014,-0.351695,
495,-0.241284,0.307339,-0.055046,-0.319527,0.298676,0.560734,-220.145718,50.751944,-4.631851,
496,-0.244037,0.320183,-0.048624,-0.247975,0.365215,0.723022,-208.18646,73.726309,-7.023703,
497,-0.244037,0.320183,-0.048624,-0.219779,0.404229,0.946368,-189.995798,99.281356,-6.897816,
498,-0.244037,0.320183,-0.048624,-0.198766,0.469966,1.157395,-166.140225,119.800926,-8.471402,
499,-0.241284,0.33578,-0.044954,-0.085452,0.510316,1.293706,-139.578082,131.004863,-8.78612,
500,-0.241284,0.33578,-0.044954,0.025733,0.510316,1.43939,-110.749975,137.362153,-2.932377,
501,-0.233028,0.344037,-0.038532,0.076538,0.52341,1.567667,-80.977716,139.628117,5.061443,
502,-0.233028,0.344037,-0.038532,0.158464,0.543719,1.649346,-52.464326,138.054531,10.726355,
503,-0.233028,0.344037,-0.038532,0.231878,0.554141,1.714689,-22.880898,131.067806,14.314132,
504,-0.225688,0.357798,-0.043119,0.287205,0.534366,1.747629,4.49951,120.304473,16.328323,
505,-0.225688,0.357798,-0.043119,0.321252,0.498826,1.764233,28.921574,105.198042,17.587192,
506,-0.225688,0.357798,-0.043119,0.335616,0.459811,1.729151,51.392391,89.336289,19.097835,
507,-0.217431,0.359633,-0.042202,0.334818,0.422935,1.715493,69.520109,74.922235,20.734366,
508,-0.217431,0.359633,-0.042202,0.358757,0.381248,1.668092,85.50775,62.018825,21.3638,
509,-0.217431,0.359633,-0.042202,0.398922,0.334751,1.623637,97.970556,48.234206,21.615574,
510,-0.217431,0.359633,-0.042202,0.433767,0.287453,1.59043,108.859775,32.057735,21.17497,
511,-0.217431,0.359633,-0.042202,0.450525,0.257257,1.513839,116.412991,13.741187,20.419648,
512,-0.204587,0.356881,-0.054128,0.463559,0.217174,1.466438,121.448468,-4.638305,17.461305,
513,-0.204587,0.356881,-0.054128,0.442013,0.183236,1.421179,125.099189,-22.010702,13.747641,
514,-0.201835,0.350459,-0.061468,0.406902,0.150902,1.366012,126.798663,-38.50189,8.712164,
515,-0.201835,0.350459,-0.061468,0.364609,0.1338,1.294509,126.609832,-52.475339,3.802573,
516,-0.201835,0.350459,-0.061468,0.325774,0.108147,1.242824,125.162133,-64.056936,-0.162865,
517,-0.200917,0.342202,-0.066055,0.295717,0.091312,1.180158,122.518507,-74.316721,-3.624756,
518,-0.200917,0.342202,-0.066055,0.246774,0.084097,1.116422,120.504316,-82.436428,-7.212533,
519,-0.200917,0.342202,-0.066055,0.217514,0.056038,1.062326,118.993673,-88.604888,-8.345515,
520,-0.205505,0.333028,-0.066055,0.184265,0.029049,0.995376,115.909443,-94.080969,-7.464307,
521,-0.205505,0.333028,-0.066055,0.139312,0.010076,0.929497,113.139931,-98.172295,-5.009512,
522,-0.211927,0.322018,-0.068807,0.095157,-0.018249,0.844336,109.174493,-99.242334,-2.554717,
523,-0.211927,0.322018,-0.068807,0.0518,-0.055393,0.723825,102.817203,-99.305277,-1.232904,
524,-0.211927,0.322018,-0.068807,0.011103,-0.096011,0.632237,95.32693,-96.032217,0.403626,
525,-0.220183,0.314679,-0.066055,-0.017624,-0.157472,0.52592,84.878315,-89.486096,3.361969,
526,-0.220183,0.314679,-0.066055,-0.067365,-0.189806,0.402464,70.841922,-81.74405,7.516238,
527,-0.220183,0.314679,-0.066055,-0.120298,-0.237639,0.293469,50.8259,-71.547209,10.411637,
528,-0.226606,0.307339,-0.066055,-0.185998,-0.280662,0.218485,26.907383,-60.532102,12.174054,
529,-0.226606,0.307339,-0.066055,-0.213129,-0.330899,0.142161,0.030524,-45.929218,12.866432,
530,-0.226606,0.307339,-0.066055,-0.234941,-0.35201,0.100384,-29.175244,-26.605575,12.425828,
531,-0.226606,0.307339,-0.066055,-0.246113,-0.35201,0.117791,-58.506899,-6.211892,13.621754,
532,-0.226606,0.307339,-0.066055,-0.222705,-0.308453,0.159568,-86.894402,14.181791,14.062358,
533,-0.233028,0.299083,-0.063303,-0.207809,-0.211718,0.221698,-110.498201,33.631322,13.495867,
534,-0.233028,0.299083,-0.063303,-0.19983,-0.086658,0.307127,-126.171124,51.94787,8.838051,
535,-0.233028,0.305505,-0.061468,-0.141045,-0.009698,0.400857,-137.752722,67.872567,3.5508,
536,-0.233028,0.305505,-0.061468,-0.064439,0.030652,0.501283,-145.620655,81.153638,1.725439,
537,-0.233028,0.305505,-0.061468,-0.013102,0.079821,0.648573,-150.593189,92.042858,3.173139,
538,-0.23211,0.313761,-0.059633,0.012699,0.141817,0.788365,-151.726171,100.036678,4.432008,
539,-0.23211,0.313761,-0.059633,0.075208,0.189917,0.913696,-148.264281,103.624455,3.676686,
540,-0.23211,0.313761,-0.059633,0.1441,0.227328,1.020817,-141.52933,104.694494,5.502047,
541,-0.227523,0.325688,-0.057798,0.199161,0.235345,1.127134,-133.283736,104.757438,10.09692,
542,-0.227523,0.325688,-0.057798,0.233474,0.26661,1.244431,-125.352859,101.35849,14.943567,
543,-0.215596,0.333945,-0.057798,0.259541,0.309632,1.365745,-114.526583,96.385957,19.286666,
544,-0.215596,0.333945,-0.057798,0.213791,0.393006,1.525086,-98.035395,91.035762,20.041987,
545,-0.215596,0.333945,-0.057798,0.160858,0.485999,1.641044,-74.935144,85.433794,14.502962,
546,-0.209174,0.343119,-0.056881,0.17203,0.531961,1.691123,-48.561832,78.950617,5.313217,
547,-0.209174,0.343119,-0.056881,0.2231,0.519669,1.744951,-21.433198,72.593327,0.277739,
548,-0.202752,0.351376,-0.056881,0.268053,0.486534,1.787531,5.128944,64.599507,0.529513,
549,-0.202752,0.351376,-0.056881,0.314868,0.471302,1.810562,30.243387,54.150891,3.236082,
550,-0.202752,0.351376,-0.056881,0.360885,0.464621,1.819132,54.728395,42.380463,5.816764,
551,-0.197248,0.355963,-0.058716,0.413552,0.429081,1.797976,78.143364,28.344071,7.390351,
552,-0.197248,0.355963,-0.058716,0.464623,0.377774,1.748165,98.59999,12.859978,8.019786,
553,-0.197248,0.355963,-0.058716,0.50133,0.31471,1.687374,115.154122,-5.960118,7.453294,
554,-0.193578,0.351376,-0.062385,0.520215,0.263136,1.594179,125.413907,-28.367992,4.432008,
555,-0.193578,0.351376,-0.062385,0.524737,0.198735,1.50634,132.589462,-50.775865,0.844231,
556,-0.193578,0.347706,-0.065138,0.492818,0.154643,1.414752,136.5549,-71.547209,-2.365886,
557,-0.193578,0.347706,-0.065138,0.464357,0.110552,1.326646,137.687882,-90.99674,-4.568908,
558,-0.193578,0.347706,-0.065138,0.42233,0.070468,1.233986,136.869617,-108.872684,-5.576003,
559,-0.197248,0.33578,-0.06789,0.364609,0.052297,1.133561,134.477766,-124.860324,-6.520155,
560,-0.197248,0.33578,-0.06789,0.292259,0.030652,1.007427,130.827045,-137.889621,-7.590194,
561,-0.197248,0.33578,-0.06789,0.210599,0.003396,0.86335,125.539794,-147.205254,-8.660233,
562,-0.20367,0.324771,-0.07156,0.124949,-0.033214,0.714184,117.357143,-151.611297,-9.793215,
563,-0.20367,0.324771,-0.07156,0.052864,-0.098416,0.54306,105.334941,-150.855975,-12.310954,
564,-0.213761,0.316514,-0.069725,-0.021614,-0.164954,0.391484,88.403149,-146.638763,-13.129219,
565,-0.213761,0.316514,-0.069725,-0.110988,-0.239242,0.252228,66.058219,-139.274378,-13.69571,
566,-0.213761,0.316514,-0.069725,-0.18121,-0.304712,0.161711,40.943776,-129.455197,-14.325145,
567,-0.224771,0.309174,-0.066055,-0.228291,-0.353346,0.073336,11.989782,-113.971104,-14.828692,
568,-0.224771,0.309174,-0.066055,-0.26021,-0.376594,0.040932,-19.10429,-95.088065,-14.010427,
569,-0.234862,0.300917,-0.062385,-0.255156,-0.373922,0.017366,-49.946588,-70.225396,-11.115028,
570,-0.234862,0.300917,-0.062385,-0.221375,-0.350139,0.040665,-79.655903,-45.677445,-6.394268,
571,-0.234862,0.300917,-0.062385,-0.17057,-0.291351,0.057804,-106.721594,-22.262476,-1.107017,
572,-0.243119,0.301835,-0.058716,-0.124021,-0.230157,0.113507,-130.703054,-1.050528,4.494952,
573,-0.243119,0.301835,-0.058716,-0.083058,-0.161748,0.21902,-149.397263,18.210173,10.726355,
574,-0.243119,0.301835,-0.058716,-0.101146,-0.069556,0.363365,-162.23773,38.415025,17.524249,
575,-0.244037,0.308257,-0.054128,-0.148759,0.052565,0.504496,-168.846794,58.242217,21.3638,
576,-0.244037,0.308257,-0.054128,-0.178816,0.139145,0.630363,-169.539172,76.369935,22.496783,
577,-0.245872,0.320183,-0.051376,-0.17456,0.209157,0.779528,-166.140225,96.385957,21.489687,
578,-0.245872,0.320183,-0.051376,-0.181476,0.277833,0.924141,-157.768744,117.220244,20.419648,
579,-0.245872,0.320183,-0.051376,-0.179348,0.366016,1.106513,-144.80239,133.459658,15.887719,
580,-0.23578,0.331193,-0.045872,-0.130405,0.435227,1.265855,-127.241163,144.915368,9.278655,
581,-0.23578,0.331193,-0.045872,-0.018688,0.461682,1.404576,-105.903328,150.58028,4.935556,
582,-0.23578,0.331193,-0.045872,0.102073,0.473707,1.547849,-82.551303,151.335602,3.991404,
583,-0.22844,0.341284,-0.051376,0.223898,0.483327,1.669431,-57.940408,146.929559,6.383255,
584,-0.22844,0.341284,-0.051376,0.336414,0.493481,1.775212,-32.448304,134.40381,9.90809,
585,-0.216514,0.350459,-0.050459,0.447067,0.495886,1.850732,-6.38971,116.716696,13.873528,
586,-0.216514,0.350459,-0.050459,0.501064,0.494817,1.908577,20.29832,95.693579,18.594288,
587,-0.216514,0.350459,-0.050459,0.502394,0.482792,1.906971,46.10514,72.152722,20.545535,
588,-0.207339,0.352294,-0.051376,0.475262,0.46382,1.885011,70.967809,47.982432,21.112026,
589,-0.207339,0.352294,-0.051376,0.457973,0.429348,1.814044,93.312739,26.896371,21.804404,
590,-0.2,0.352294,-0.058716,0.438023,0.378041,1.760216,113.202874,10.34224,22.874443,
591,-0.2,0.352294,-0.058716,0.431639,0.342768,1.704245,127.931645,-6.652496,22.433839,
592,-0.2,0.352294,-0.058716,0.444407,0.304288,1.606766,139.009695,-24.591384,18.783118,
593,-0.200917,0.346789,-0.059633,0.457441,0.238284,1.528032,146.877628,-45.614501,14.628849,
594,-0.200917,0.346789,-0.059633,0.438821,0.170142,1.447959,152.35371,-65.75641,9.845146,
595,-0.200917,0.346789,-0.059633,0.404242,0.116965,1.337625,154.304957,-85.205941,4.746725,
596,-0.199083,0.338532,-0.065138,0.348915,0.079821,1.202386,154.430844,-100.878864,0.781287,
597,-0.199083,0.338532,-0.065138,0.302632,0.016757,1.076519,150.654236,-112.208687,0.088909,
598,-0.204587,0.32844,-0.068807,0.270447,-0.033214,0.941815,144.611664,-121.33549,2.228987,
599,-0.204587,0.32844,-0.068807,0.202619,-0.061005,0.801755,136.806674,-128.951649,2.606648,
600,-0.204587,0.32844,-0.068807,0.112713,-0.08746,0.609474,123.210885,-135.560713,-0.666413,
601,-0.210092,0.315596,-0.069725,0.045948,-0.158541,0.433529,102.691316,-140.910908,-7.52725,
602,-0.210092,0.315596,-0.069725,-0.073217,-0.237104,0.278204,80.472272,-140.21853,-13.192162,
603,-0.210092,0.315596,-0.069725,-0.192648,-0.322348,0.167602,53.7213,-135.87543,-18.353526,
604,-0.220183,0.307339,-0.069725,-0.290002,-0.384878,0.092082,23.445493,-124.167946,-21.248926,
605,-0.220183,0.307339,-0.069725,-0.336284,-0.418014,-0.015038,-11.425187,-106.229058,-21.185982,
606,-0.22844,0.300917,-0.063303,-0.322453,-0.416411,-0.064581,-46.547641,-77.400951,-17.598205,
607,-0.22844,0.300917,-0.063303,-0.279096,-0.383008,-0.061368,-79.907677,-50.524091,-12.122123,
608,-0.22844,0.300917,-0.063303,-0.215257,-0.328227,-0.005665,-109.868767,-28.619766,-8.345515,
609,-0.241284,0.299083,-0.059633,-0.157005,-0.267033,0.012278,-135.927361,-11.436199,-5.576003,
610,-0.241284,0.299083,-0.059633,-0.111254,-0.209046,0.062892,-157.7058,2.72608,-1.547621,
611,-0.23945,0.30367,-0.055963,-0.076675,-0.156403,0.121273,-176.966501,17.391908,5.124386,
612,-0.23945,0.30367,-0.055963,-0.101678,-0.081848,0.271777,-192.513537,34.827248,12.740545,
613,-0.23945,0.30367,-0.055963,-0.217651,0.05203,0.434332,-199.689092,56.542743,17.083645,
614,-0.241284,0.314679,-0.053211,-0.251432,0.168806,0.537436,-201.514452,74.733405,12.425828,
615,-0.241284,0.314679,-0.053211,-0.196106,0.221716,0.641343,-198.556109,92.546405,6.949747,
616,-0.241284,0.314679,-0.053211,-0.172166,0.254852,0.793989,-192.891198,109.289367,4.494952,
617,-0.240367,0.326606,-0.045872,-0.187328,0.316046,0.963507,-184.330886,122.003947,0.46657,
618,-0.240367,0.326606,-0.045872,-0.120564,0.387929,1.08616,-174.889366,127.102368,-6.394268,
619,-0.234862,0.340367,-0.044037,0.006581,0.423736,1.181497,-162.930108,129.557163,-9.667328,
620,-0.234862,0.340367,-0.044037,0.104467,0.432287,1.335215,-148.516054,128.927728,-9.289667,
621,-0.234862,0.340367,-0.044037,0.172827,0.475845,1.520266,-130.136563,123.892251,-8.156685,
622,-0.222936,0.355046,-0.043119,0.266723,0.51192,1.631671,-109.176389,110.862954,-10.296763,
623,-0.222936,0.355046,-0.043119,0.40637,0.514325,1.725401,-85.824363,94.371766,-9.982046,
624,-0.222936,0.355046,-0.043119,0.488296,0.509782,1.805742,-60.458147,73.600422,-4.443021,
625,-0.216514,0.36055,-0.040367,0.463559,0.527953,1.84002,-36.161969,48.234206,3.236082,
626,-0.216514,0.36055,-0.040367,0.386154,0.570976,1.838949,-11.173413,24.441576,7.705068,
627,-0.209174,0.366972,-0.042202,0.307952,0.571778,1.8194,13.374538,8.453936,9.152768,
628,-0.209174,0.366972,-0.042202,0.248902,0.543185,1.769589,37.796603,-1.491132,7.830955,
629,-0.209174,0.366972,-0.042202,0.223898,0.498291,1.722723,59.008551,-6.211892,6.697973,
630,-0.211009,0.37156,-0.043119,0.241454,0.439502,1.655238,77.010382,-9.925556,7.453294,
631,-0.211009,0.37156,-0.043119,0.261935,0.403962,1.605427,94.256891,-14.142768,9.467485,
632,-0.210092,0.366972,-0.044037,0.286141,0.379912,1.572755,109.363323,-19.744737,10.28575,
633,-0.210092,0.366972,-0.044037,0.274969,0.367352,1.532852,124.343868,-23.710175,11.166959,
634,-0.210092,0.366972,-0.044037,0.260871,0.371895,1.493486,141.338603,-27.549727,10.28575,
635,-0.209174,0.362385,-0.044954,0.278427,0.327804,1.402969,157.578017,-30.759843,9.656316,
636,-0.209174,0.362385,-0.044954,0.261403,0.265808,1.297723,171.42558,-35.795321,11.92228,
637,-0.209174,0.362385,-0.044954,0.244114,0.195261,1.208813,179.4194,-40.13842,16.013606,
638,-0.212844,0.352294,-0.052294,0.213791,0.145558,1.088303,185.210199,-42.278497,19.160779,
639,-0.212844,0.352294,-0.052294,0.177881,0.097992,0.937263,187.287333,-48.635787,16.580097,
640,-0.215596,0.342202,-0.057798,0.162986,0.031454,0.791579,181.874195,-58.329081,9.278655,
641,-0.215596,0.342202,-0.057798,0.125481,-0.047377,0.667587,173.691545,-66.008184,3.424913,
642,-0.215596,0.342202,-0.057798,0.087178,-0.139301,0.549755,158.522169,-72.680191,0.403626,
643,-0.215596,0.330275,-0.059633,0.084784,-0.227752,0.390413,135.925465,-77.275064,-0.855243,
644,-0.215596,0.330275,-0.059633,0.093561,-0.288946,0.256512,106.153206,-81.051672,-1.107017,
645,-0.215596,0.330275,-0.059633,0.078666,-0.339183,0.167602,72.667283,-85.646545,-2.239999,
646,-0.220183,0.320183,-0.066055,0.043023,-0.388887,0.110025,35.02709,-90.304362,-5.261286,
647,-0.220183,0.320183,-0.066055,-0.028264,-0.423626,0.067445,-4.690236,-95.339839,-6.897816,
648,-0.223853,0.311927,-0.061468,-0.056991,-0.457028,-0.024947,-47.051188,-96.09516,-8.660233,
649,-0.223853,0.311927,-0.061468,-0.035446,-0.466648,-0.087612,-90.985727,-91.563231,-6.205438,
650,-0.223853,0.311927,-0.061468,-0.081728,-0.422022,-0.049584,-133.094905,-78.219216,2.984308,
651,-0.23211,0.310092,-0.061468,-0.180944,-0.287342,-0.004594,-170.546267,-63.553389,7.893899,
652,-0.23211,0.310092,-0.061468,-0.223237,-0.158007,0.054323,-200.5703,-47.439862,5.56499,
653,-0.238532,0.315596,-0.054128,-0.192382,-0.069823,0.092082,-223.481722,-26.794405,5.502047,
654,-0.238532,0.315596,-0.054128,-0.143705,-0.033481,0.156623,-245.197217,-4.512418,10.978128,
655,-0.238532,0.315596,-0.054128,-0.128809,0.019429,0.326141,-264.520861,19.217268,20.419648,
656,-0.241284,0.32844,-0.044954,-0.245315,0.207019,0.569036,-272.451738,46.723562,27.028712,
657,-0.241284,0.32844,-0.044954,-0.445874,0.468362,0.762121,-263.450822,75.299896,19.160779,
658,-0.241284,0.32844,-0.044954,-0.478857,0.639919,0.882631,-245.197217,100.98083,-0.288752,
659,-0.242202,0.345872,-0.037615,-0.361288,0.676529,1.034207,-223.796439,125.780555,-15.772844,
660,-0.242202,0.345872,-0.037615,-0.219779,0.635911,1.204796,-201.577396,141.264647,-21.68953,
661,-0.23578,0.362385,-0.031193,-0.046085,0.627093,1.393328,-180.680165,146.740729,-21.311869,
662,-0.23578,0.362385,-0.031193,0.168306,0.652479,1.561775,-155.376892,141.327591,-16.77994,
663,-0.23578,0.362385,-0.031193,0.386952,0.635109,1.694336,-126.297011,130.375428,-9.541441,
664,-0.226606,0.374312,-0.02844,0.576606,0.619343,1.836271,-95.517657,111.870049,0.340683,
665,-0.226606,0.374312,-0.02844,0.654808,0.632704,1.935625,-64.990076,81.342468,11.418733,
666,-0.226606,0.374312,-0.02844,0.596289,0.678399,1.921432,-37.420838,43.135785,17.713079,
667,-0.219266,0.383486,-0.02844,0.436161,0.69657,1.878316,-11.928735,16.88836,18.971949,
668,-0.219266,0.383486,-0.02844,0.302366,0.66584,1.834129,14.192803,2.914911,18.405457,
669,-0.211927,0.387156,-0.023853,0.187457,0.628429,1.76825,36.034186,-4.890079,17.146588,
670,-0.211927,0.387156,-0.023853,0.146228,0.593423,1.708798,55.294886,-7.785478,14.628849,
671,-0.211927,0.387156,-0.023853,0.163518,0.566166,1.65979,73.359661,-7.596648,12.992319,
672,-0.214679,0.392661,-0.027523,0.205545,0.536504,1.620691,89.787905,-8.666687,11.670507,
673,-0.214679,0.392661,-0.027523,0.25103,0.5023,1.585877,103.824298,-12.380351,9.782203,
674,-0.213761,0.386239,-0.029358,0.310346,0.472638,1.545707,116.601821,-19.681793,9.026881,
675,-0.213761,0.386239,-0.029358,0.328434,0.450993,1.471526,130.071723,-29.375087,7.138577,
676,-0.213761,0.386239,-0.029358,0.325774,0.399954,1.413413,141.401547,-39.760759,4.998499,
677,-0.213761,0.378899,-0.03211,0.321252,0.335019,1.323164,150.968954,-48.258127,4.620838,
678,-0.213761,0.378899,-0.03211,0.299972,0.285315,1.24202,158.270395,-54.67836,6.257369,
679,-0.213761,0.378899,-0.03211,0.289067,0.246835,1.155788,165.06829,-61.665085,8.397446,
680,-0.215596,0.37156,-0.03578,0.278161,0.208355,1.070628,172.055014,-68.966527,10.348694,
681,-0.215596,0.37156,-0.03578,0.24704,0.162393,0.966721,176.272227,-77.212121,12.740545,
682,-0.219266,0.36055,-0.043119,0.198097,0.131128,0.865224,177.468152,-86.024206,14.880623,
683,-0.219266,0.36055,-0.043119,0.155538,0.082761,0.741232,174.320979,-92.570326,15.069454,
684,-0.219266,0.36055,-0.043119,0.100477,0.027446,0.594477,167.082481,-98.109351,13.244093,
685,-0.222018,0.352294,-0.049541,0.056588,-0.050316,0.425495,152.479597,-101.319468,9.656316,
686,-0.222018,0.352294,-0.049541,0.012433,-0.142775,0.29454,131.078818,-103.774263,6.697973,
687,-0.222018,0.352294,-0.049541,-0.030392,-0.250733,0.152606,102.124824,-104.403698,3.92846,
688,-0.22844,0.340367,-0.048624,-0.062577,-0.360561,0.049234,67.065314,-103.648376,1.725439,
689,-0.22844,0.340367,-0.048624,-0.089176,-0.431108,-0.04155,25.963231,-101.067694,1.096004,
690,-0.234862,0.333028,-0.049541,-0.129341,-0.446339,-0.081185,-19.167233,-93.766252,5.313217,
691,-0.234862,0.333028,-0.049541,-0.210469,-0.402515,-0.088415,-66.941323,-83.128806,9.026881,
692,-0.234862,0.333028,-0.049541,-0.25356,-0.326624,-0.092968,-111.253523,-66.071127,10.978128,
693,-0.240367,0.32844,-0.045872,-0.300641,-0.245121,-0.062171,-149.082546,-39.760759,13.936471,
694,-0.240367,0.32844,-0.045872,-0.303035,-0.152395,-0.005129,-182.253752,-14.268655,14.754736,
695,-0.246789,0.333028,-0.03945,-0.278298,-0.042567,0.096635,-209.382385,13.300582,16.202436,
696,-0.246789,0.333028,-0.03945,-0.243985,0.049625,0.21902,-230.027842,39.673894,19.53844,
697,-0.246789,0.333028,-0.03945,-0.213395,0.180297,0.405945,-245.134274,62.396485,23.315048,
698,-0.246789,0.344037,-0.034862,-0.260476,0.328338,0.568233,-249.162656,83.797264,25.266295,
699,-0.246789,0.344037,-0.034862,-0.293193,0.459811,0.727842,-244.567783,101.673208,20.293761,
700,-0.246789,0.344037,-0.034862,-0.242655,0.530358,0.876204,-234.685659,121.374512,13.244093,
701,-0.245872,0.362385,-0.025688,-0.168176,0.56189,1.040634,-219.956888,139.942835,9.467485,
702,-0.245872,0.362385,-0.025688,-0.043957,0.574183,1.205867,-202.332717,150.139676,8.397446,
703,-0.234862,0.375229,-0.020183,0.05579,0.611861,1.381277,-181.813148,152.594471,9.782203,
704,-0.234862,0.375229,-0.020183,0.119629,0.671719,1.560704,-154.810401,150.643224,11.418733,
705,-0.234862,0.375229,-0.020183,0.222568,0.711268,1.682018,-124.219877,142.019969,10.915185,
706,-0.224771,0.388073,-0.015596,0.340138,0.724361,1.800654,-92.30754,129.305389,12.677602,
707,-0.224771,0.388073,-0.015596,0.427649,0.725698,1.884743,-59.828712,111.366501,17.587192,
708,-0.224771,0.388073,-0.015596,0.446003,0.74948,1.96428,-26.972223,87.00738,22.748556,
709,-0.213761,0.4,-0.014679,0.427383,0.75723,1.959995,4.058905,62.333542,24.573917,
710,-0.213761,0.4,-0.014679,0.397592,0.734783,1.938303,35.152977,44.331711,24.196256,
711,-0.211009,0.401835,-0.016514,0.372855,0.694967,1.895991,63.855198,28.784675,22.937387,
712,-0.211009,0.401835,-0.016514,0.370727,0.647669,1.845109,89.536131,13.678243,21.489687,
713,-0.211009,0.401835,-0.016514,0.361949,0.611326,1.798243,113.076987,-1.742906,19.475496,
714,-0.205505,0.401835,-0.019266,0.365141,0.577389,1.715225,133.785387,-18.234094,16.64304,
715,-0.205505,0.401835,-0.019266,0.372323,0.537306,1.632474,150.339519,-32.836978,13.999415,
716,-0.204587,0.397248,-0.023853,0.377377,0.491344,1.539012,164.690629,-46.558653,11.985224,
717,-0.204587,0.397248,-0.023853,0.380303,0.433891,1.475007,176.586944,-60.217385,10.600468,
718,-0.204587,0.397248,-0.023853,0.362215,0.383119,1.36387,185.713746,-73.435513,9.215711,
719,-0.205505,0.388991,-0.029358,0.348649,0.326467,1.244698,192.385754,-86.087149,8.397446,
720,-0.205505,0.388991,-0.029358,0.322316,0.269015,1.138649,197.484174,-99.682938,7.01269,
721,-0.205505,0.388991,-0.029358,0.285343,0.20889,0.975558,199.309535,-116.111182,4.432008,
722,-0.210092,0.377064,-0.036697,0.239858,0.13861,0.829875,196.728853,-133.168861,0.403626,
723,-0.210092,0.377064,-0.036697,0.189319,0.062185,0.626346,186.406124,-148.40118,-5.513059,
724,-0.213761,0.366972,-0.042202,0.14942,-0.030274,0.454953,172.369732,-158.786852,-9.856159,
725,-0.213761,0.366972,-0.042202,0.073612,-0.112312,0.311412,152.416653,-164.19999,-13.255106,
726,-0.213761,0.366972,-0.042202,-0.003792,-0.194883,0.155819,124.092094,-166.088294,-18.41647,
727,-0.224771,0.356881,-0.044954,-0.066301,-0.261422,0.050573,91.046775,-162.500516,-20.745378,
728,-0.224771,0.356881,-0.044954,-0.129075,-0.343192,-0.061635,52.777148,-154.191979,-21.437756,
729,-0.224771,0.356881,-0.044954,-0.192914,-0.399843,-0.154295,8.716722,-143.365703,-20.053,
730,-0.236697,0.344037,-0.041284,-0.243187,-0.424427,-0.198749,-40.505068,-127.566893,-16.276392,
731,-0.236697,0.344037,-0.041284,-0.273776,-0.413204,-0.202499,-91.111614,-105.977284,-11.052084,
732,-0.246789,0.340367,-0.036697,-0.293725,-0.363501,-0.166881,-136.80857,-82.058768,-4.946568,
733,-0.246789,0.340367,-0.036697,-0.314739,-0.258749,-0.125104,-177.470049,-55.118964,-0.288752,
734,-0.246789,0.340367,-0.036697,-0.307291,-0.137163,-0.012896,-211.144802,-29.06037,1.914269,
735,-0.253211,0.340367,-0.029358,-0.297183,0.016222,0.158765,-234.874489,-1.239358,4.809669,
736,-0.253211,0.340367,-0.029358,-0.350914,0.195528,0.38961,-244.945443,28.469958,6.760916,
737,-0.258716,0.355046,-0.021101,-0.422998,0.403427,0.600369,-242.238874,57.109234,1.977213,
738,-0.258716,0.355046,-0.021101,-0.465557,0.570709,0.803362,-228.957803,81.971903,-7.967855,
739,-0.258716,0.355046,-0.021101,-0.445608,0.67065,1.032064,-205.920495,102.113812,-19.360622,
740,-0.255963,0.36789,-0.011927,-0.347722,0.696838,1.211491,-179.67307,117.534961,-29.116859,
741,-0.255963,0.36789,-0.011927,-0.162325,0.668512,1.403237,-151.285567,124.836403,-32.075202,
742,-0.255963,0.36789,-0.011927,0.020679,0.644729,1.565792,-120.632099,122.822212,-24.96259,
743,-0.249541,0.377064,-0.007339,0.150218,0.649005,1.699157,-88.405045,113.88424,-13.632767,
744,-0.249541,0.377064,-0.007339,0.222568,0.681071,1.815918,-54.415574,101.547321,-2.42883,
745,-0.245872,0.387156,-0.005505,0.265127,0.724896,1.893581,-19.419007,85.685568,5.313217,
746,-0.245872,0.387156,-0.005505,0.286939,0.741196,1.902954,14.822238,67.93551,9.90809,
747,-0.245872,0.387156,-0.005505,0.23507,0.720086,1.896259,46.608688,48.737753,11.985224,
748,-0.23945,0.388073,-0.004587,0.168838,0.685614,1.852607,75.562682,32.561283,12.048167,
749,-0.23945,0.388073,-0.004587,0.1308,0.62442,1.794226,99.85886,23.371537,12.614659,
750,-0.23945,0.388073,-0.004587,0.116969,0.564563,1.739595,120.378429,17.391908,14.880623,
751,-0.237615,0.390826,-0.011009,0.152612,0.507644,1.684696,135.170144,11.097561,16.328323,
752,-0.237615,0.390826,-0.011009,0.225228,0.455803,1.648542,147.444119,0.90072,16.45421,
753,-0.233945,0.383486,-0.014679,0.281885,0.414651,1.590697,158.270395,-14.331599,14.251189,
754,-0.233945,0.383486,-0.014679,0.331094,0.344104,1.51732,164.564742,-34.095847,11.041072,
755,-0.233945,0.383486,-0.014679,0.357959,0.261532,1.430552,165.949498,-54.67836,7.768012,
756,-0.233028,0.374312,-0.023853,0.351043,0.199537,1.29317,163.43176,-75.19793,1.473665,
757,-0.233028,0.374312,-0.023853,0.328966,0.130861,1.205867,157.892735,-96.913425,-6.897816,
758,-0.236697,0.366055,-0.025688,0.290929,0.069934,1.115886,150.213632,-117.873599,-15.33224,
759,-0.236697,0.366055,-0.025688,0.232676,0.056038,1.034742,141.842151,-137.071356,-22.004247,
760,-0.236697,0.366055,-0.025688,0.16937,0.07608,0.926283,132.274744,-150.855975,-25.592025,
761,-0.240367,0.355963,-0.030275,0.114841,0.06459,0.802023,122.140846,-160.801043,-28.361537,
762,-0.240367,0.355963,-0.030275,0.057918,0.038936,0.678567,109.552153,-167.787767,-28.424481,
763,-0.240367,0.355963,-0.030275,-0.002994,-0.009698,0.542256,96.334026,-171.942036,-27.795046,
764,-0.252294,0.348624,-0.029358,-0.083058,-0.07009,0.413979,81.416424,-172.823245,-27.354442,
765,-0.252294,0.348624,-0.029358,-0.172432,-0.139568,0.286506,62.973989,-167.66188,-25.843799,
766,-0.258716,0.338532,-0.027523,-0.262072,-0.178316,0.183403,42.517363,-156.017339,-23.829608,
767,-0.258716,0.338532,-0.027523,-0.328571,-0.219735,0.062089,19.542998,-140.533247,-22.444852,
768,-0.258716,0.338532,-0.027523,-0.367938,-0.261422,-0.004326,-6.704427,-118.691864,-20.304774,
769,-0.269725,0.331193,-0.021101,-0.370332,-0.296962,-0.020126,-33.770117,-92.947987,-16.150505,
770,-0.269725,0.331193,-0.021101,-0.34586,-0.303376,-0.018252,-62.661168,-62.923954,-9.667328,
771,-0.269725,0.331193,-0.021101,-0.326975,-0.253405,0.006386,-90.041575,-35.228829,-2.177056,
772,-0.278899,0.327523,-0.014679,-0.284416,-0.192746,0.043343,-115.911339,-11.876804,4.306121,
773,-0.278899,0.327523,-0.014679,-0.228025,-0.13556,0.111632,-139.955743,9.08337,10.852242,
774,-0.283486,0.33211,-0.010092,-0.183604,-0.07971,0.216878,-159.531161,27.96641,18.027797,
775,-0.283486,0.33211,-0.010092,-0.184136,0.005801,0.343816,-175.078197,45.338806,23.503878,
776,-0.283486,0.33211,-0.010092,-0.19451,0.114293,0.509852,-183.386734,60.759955,27.280486,
777,-0.286239,0.340367,-0.00367,-0.226961,0.23294,0.646431,-184.708547,75.362839,27.909921,
778,-0.286239,0.340367,-0.00367,-0.242655,0.333682,0.800684,-182.694356,84.426698,25.769843,
779,-0.280734,0.352294,0.000917,-0.280958,0.416789,0.976897,-173.189893,92.798179,22.8115,
780,-0.280734,0.352294,0.000917,-0.334954,0.499627,1.138917,-157.579913,99.53313,16.013606,
781,-0.280734,0.352294,0.000917,-0.307025,0.567769,1.273353,-137.563892,103.435625,4.872612,
782,-0.277982,0.362385,0.00367,-0.214725,0.590483,1.400559,-113.393601,105.135098,-2.869434,
783,-0.277982,0.362385,0.00367,-0.123223,0.59075,1.520266,-88.530932,102.491473,-4.946568,
784,-0.277982,0.362385,0.00367,-0.059917,0.602508,1.638098,-63.857094,95.064144,-3.687699,
785,-0.270642,0.37156,0.001835,-0.005654,0.617473,1.707459,-39.435029,83.797264,-0.729356,
786,-0.270642,0.37156,0.001835,0.032383,0.63885,1.748432,-14.761191,70.453249,1.536609,
787,-0.265138,0.377982,0,0.057652,0.639385,1.776016,9.22027,57.172178,3.110195,
788,-0.265138,0.377982,0,0.056056,0.608921,1.763429,30.243387,42.569294,3.299026,
789,-0.265138,0.377982,0,0.050736,0.569907,1.759144,48.811709,29.351166,2.480761,
790,-0.26055,0.379817,-0.000917,0.058982,0.515394,1.726473,64.925236,18.33606,1.158948,
791,-0.26055,0.379817,-0.000917,0.058982,0.463552,1.699693,79.276347,8.076275,2.606648,
792,-0.26055,0.379817,-0.000917,0.064036,0.428546,1.62444,90.165566,-2.120567,2.606648,
793,-0.259633,0.376147,-0.004587,0.084784,0.404496,1.573023,99.040595,-11.750917,1.788382,
794,-0.259633,0.376147,-0.004587,0.087444,0.379912,1.525354,104.894337,-22.577193,-0.036978,
795,-0.26055,0.370642,-0.006422,0.099945,0.347845,1.463492,109.929814,-36.487699,-5.009512,
796,-0.26055,0.370642,-0.006422,0.097285,0.304555,1.38208,113.076987,-51.59413,-10.296763,
797,-0.26055,0.370642,-0.006422,0.089571,0.255921,1.310578,113.643479,-66.322901,-15.709901,
798,-0.256881,0.366055,-0.009174,0.086646,0.217975,1.243359,113.706422,-79.415142,-20.304774,
799,-0.256881,0.366055,-0.009174,0.063238,0.185641,1.147754,115.028235,-90.619079,-23.200173,
800,-0.265138,0.36055,-0.013761,0.042757,0.174418,1.066075,117.48303,-100.941807,-24.899647,
801,-0.265138,0.36055,-0.013761,0.003124,0.154643,0.9619,120.441373,-107.17321,-24.899647,
802,-0.265138,0.36055,-0.013761,-0.045287,0.14636,0.826125,120.693147,-111.138649,-24.459043,
803,-0.268807,0.350459,-0.011927,-0.08758,0.102268,0.707757,118.490125,-111.831027,-23.32606,
804,-0.268807,0.350459,-0.011927,-0.116308,0.049358,0.555646,112.9511,-111.075705,-22.130134,
805,-0.268807,0.350459,-0.011927,-0.147163,-0.030542,0.425763,102.250711,-106.858493,-20.367717,
806,-0.277064,0.341284,-0.011927,-0.188924,-0.117656,0.296415,87.14428,-100.878864,-18.101753,
807,-0.277064,0.341284,-0.011927,-0.222971,-0.194349,0.200274,67.128258,-90.619079,-15.709901,
808,-0.285321,0.333945,-0.011927,-0.245315,-0.259551,0.110025,42.076759,-77.715668,-14.262201,
809,-0.285321,0.333945,-0.011927,-0.266062,-0.314332,0.038522,12.870991,-62.67218,-12.05918,
810,-0.285321,0.333945,-0.011927,-0.267392,-0.334641,0.005851,-18.537799,-45.614501,-9.919102,
811,-0.290826,0.329358,-0.005505,-0.241857,-0.337313,0.007457,-51.520174,-26.668518,-5.764833,
812,-0.290826,0.329358,-0.005505,-0.20648,-0.297497,0.031827,-83.369568,-9.233178,-0.477582,
813,-0.290826,0.329358,-0.005505,-0.195574,-0.226148,0.070391,-111.820014,7.195066,5.627934,
814,-0.294495,0.32844,-0.00367,-0.187328,-0.135827,0.128236,-136.682683,22.175611,9.152768,
815,-0.294495,0.32844,-0.00367,-0.140513,-0.063677,0.204827,-156.887535,36.589665,13.621754,
816,-0.292661,0.329358,-0.001835,-0.139449,0.019963,0.359616,-170.294493,54.276778,20.860252,
817,-0.292661,0.329358,-0.001835,-0.240261,0.154109,0.547344,-173.756384,76.244048,27.280486,
818,-0.292661,0.329358,-0.001835,-0.330699,0.305624,0.709364,-169.979776,95.252974,26.021617,
819,-0.292661,0.33945,0.001835,-0.365544,0.413582,0.8438,-160.097652,112.562427,20.734366,
820,-0.292661,0.33945,0.001835,-0.325645,0.457941,0.970202,-146.753637,128.298294,16.894814,
821,-0.281651,0.350459,0.00367,-0.286278,0.473707,1.124456,-131.521319,143.467669,17.398362,
822,-0.281651,0.350459,0.00367,-0.225631,0.496688,1.276567,-115.281905,154.168058,19.286666,
823,-0.281651,0.350459,0.00367,-0.139715,0.54265,1.405915,-96.021204,159.203535,22.307952,
824,-0.278899,0.361468,0.00367,-0.049543,0.585406,1.529639,-74.620426,157.692892,25.455125,
825,-0.278899,0.361468,0.00367,0.045417,0.600905,1.643186,-52.7161,150.894998,28.098751,
826,-0.278899,0.361468,0.00367,0.118831,0.615602,1.739059,-28.671697,138.180418,28.728186,
827,-0.26789,0.36789,0,0.180807,0.61293,1.796369,-5.256727,119.360321,26.273391,
828,-0.26789,0.36789,0,0.218312,0.604646,1.831451,17.780581,97.581882,22.370896,
829,-0.259633,0.37156,-0.004587,0.245976,0.575786,1.839485,40.440228,75.803443,18.971949,
830,-0.259633,0.37156,-0.004587,0.249966,0.551736,1.844305,61.148629,53.143796,15.635945,
831,-0.259633,0.37156,-0.004587,0.256615,0.522876,1.795297,81.16465,31.113583,13.055263,
832,-0.251376,0.375229,-0.009174,0.269649,0.48493,1.748432,98.474103,11.097561,11.041072,
833,-0.251376,0.375229,-0.009174,0.269383,0.455803,1.704513,113.958196,-8.163139,9.467485,
834,-0.251376,0.375229,-0.009174,0.24837,0.431219,1.619888,126.043341,-28.242105,7.138577,
835,-0.247706,0.370642,-0.014679,0.24172,0.380179,1.545439,134.540709,-47.880466,4.306121,
836,-0.247706,0.370642,-0.014679,0.234804,0.323261,1.453315,139.450299,-65.882297,1.599552,
837,-0.246789,0.366055,-0.021101,0.209269,0.274894,1.341642,142.534529,-82.939976,-2.051169,
838,-0.246789,0.366055,-0.021101,0.177349,0.234543,1.244966,143.038077,-99.053503,-7.086646,
839,-0.246789,0.366055,-0.021101,0.140642,0.181366,1.119635,142.975133,-113.467557,-11.870349,
840,-0.253211,0.36055,-0.022018,0.114841,0.134869,0.994572,141.023886,-125.930363,-15.646957,
841,-0.253211,0.36055,-0.022018,0.07042,0.106276,0.856922,137.939656,-135.87543,-17.661148,
842,-0.26055,0.347706,-0.022936,0.026531,0.074744,0.700527,132.841236,-142.358607,-18.920018,
843,-0.26055,0.347706,-0.022936,-0.033584,0.032256,0.536097,124.721528,-144.876346,-19.675339,
844,-0.26055,0.347706,-0.022936,-0.117638,-0.037222,0.384253,110.999853,-143.176872,-19.360622,
845,-0.268807,0.338532,-0.021101,-0.19584,-0.127276,0.217413,92.872135,-133.357692,-19.171791,
846,-0.268807,0.338532,-0.021101,-0.293459,-0.20771,0.094225,70.086601,-114.78937,-16.905827,
847,-0.268807,0.338532,-0.021101,-0.383099,-0.26543,-0.007004,44.216836,-89.863757,-12.940388,
848,-0.275229,0.330275,-0.018349,-0.450662,-0.308186,-0.068063,14.696351,-59.902668,-8.597289,
849,-0.275229,0.330275,-0.018349,-0.45678,-0.318073,-0.096717,-17.341873,-27.864444,-4.946568,
850,-0.282569,0.325688,-0.016514,-0.398527,-0.327426,-0.097253,-50.764853,3.292571,-0.414639,
851,-0.282569,0.325688,-0.016514,-0.338412,-0.288678,-0.042621,-83.054851,31.23947,3.73963,
852,-0.282569,0.325688,-0.016514,-0.276436,-0.234432,0.02058,-111.253523,53.5844,5.690877,
853,-0.288073,0.323853,-0.010092,-0.227227,-0.150257,0.092618,-137.186231,74.355744,7.516238,
854,-0.288073,0.323853,-0.010092,-0.154079,-0.071159,0.197328,-158.146405,93.112896,11.54462,
855,-0.288073,0.323853,-0.010092,-0.10221,0.02317,0.34328,-174.637593,110.422349,18.909005,
856,-0.284404,0.330275,-0.014679,-0.139715,0.154643,0.584033,-181.372543,129.116559,25.706899,
857,-0.284404,0.330275,-0.014679,-0.26952,0.346242,0.825322,-176.337066,145.418916,22.370896,
858,-0.284404,0.330275,-0.014679,-0.312611,0.500429,0.998589,-163.811317,155.678701,8.712164,
859,-0.284404,0.330275,-0.014679,-0.212331,0.541314,1.16784,-147.446016,165.183164,-1.547621,
860,-0.284404,0.330275,-0.014679,-0.080399,0.518867,1.321825,-128.562976,170.029811,-1.925282,
861,-0.27156,0.351376,-0.011927,0.016423,0.517264,1.498574,-109.491106,165.875542,3.5508,
862,-0.27156,0.351376,-0.011927,0.115639,0.553606,1.65497,-87.58678,153.790397,9.845146,
863,-0.26055,0.358716,-0.014679,0.196767,0.605448,1.772802,-62.849998,136.22917,15.573001,
864,-0.26055,0.358716,-0.014679,0.289333,0.627093,1.8668,-37.546725,115.646657,17.398362,
865,-0.26055,0.358716,-0.014679,0.337212,0.623351,1.92411,-12.621113,89.462175,17.272475,
866,-0.251376,0.365138,-0.019266,0.339074,0.601172,1.959995,11.108574,59.94169,14.565906,
867,-0.251376,0.365138,-0.019266,0.304228,0.564295,1.935625,32.761126,31.554187,9.90809,
868,-0.251376,0.365138,-0.019266,0.283481,0.531427,1.884743,53.028921,7.887444,6.82386,
869,-0.244954,0.369725,-0.020183,0.242784,0.495085,1.836807,70.590148,-11.687973,4.809669,
870,-0.244954,0.369725,-0.020183,0.21778,0.45901,1.787799,85.570693,-28.305048,4.180234,
871,-0.243119,0.366972,-0.023853,0.207407,0.428279,1.728347,99.292368,-43.789141,2.984308,
872,-0.243119,0.366972,-0.023853,0.203949,0.401022,1.643722,109.67804,-57.384929,1.851326,
873,-0.243119,0.366972,-0.023853,0.200225,0.360672,1.562578,117.860691,-70.980718,0.025965,
874,-0.242202,0.36422,-0.027523,0.172561,0.305357,1.470723,123.65149,-84.513563,-3.058264,
875,-0.242202,0.36422,-0.027523,0.144898,0.260464,1.372172,126.735719,-96.913425,-7.904911,
876,-0.242202,0.36422,-0.027523,0.081592,0.212363,1.267194,127.428097,-108.683853,-14.954579,
877,-0.244954,0.356881,-0.029358,0.044353,0.155178,1.176141,127.805758,-116.048239,-19.86417,
878,-0.244954,0.356881,-0.029358,-0.00193,0.13193,1.062058,129.442288,-120.328394,-22.381908,
879,-0.244954,0.356881,-0.029358,-0.02188,0.116431,0.927622,129.442288,-122.090812,-22.130134,
880,-0.244954,0.356881,-0.029358,-0.045287,0.086769,0.768816,127.428097,-120.454281,-19.927113,
881,-0.244954,0.356881,-0.029358,-0.066833,0.057107,0.593674,121.952016,-120.076621,-19.612396,
882,-0.26055,0.33945,-0.027523,-0.087314,-0.013707,0.425227,111.062797,-119.384243,-18.982961,
883,-0.26055,0.33945,-0.027523,-0.11551,-0.108303,0.260262,95.767534,-118.440091,-18.227639,
884,-0.269725,0.33211,-0.024771,-0.160729,-0.198357,0.099313,75.373852,-113.971104,-16.528166,
885,-0.269725,0.33211,-0.024771,-0.212597,-0.27986,-0.03432,49.881748,-104.529585,-14.451032,
886,-0.269725,0.33211,-0.024771,-0.284948,-0.329831,-0.144386,20.550093,-91.18557,-13.632767,
887,-0.277064,0.319266,-0.023853,-0.330167,-0.385947,-0.20839,-12.117565,-73.75023,-13.821597,
888,-0.277064,0.319266,-0.023853,-0.315537,-0.404386,-0.249364,-48.310058,-50.083487,-14.136314,
889,-0.277064,0.319266,-0.023853,-0.28681,-0.394498,-0.257398,-85.194928,-24.213723,-11.366802,
890,-0.281651,0.317431,-0.017431,-0.225365,-0.3472,-0.242937,-121.261534,-1.805849,-6.771929,
891,-0.281651,0.317431,-0.017431,-0.170038,-0.290282,-0.177593,-155.502779,18.71372,-0.666413,
892,-0.285321,0.319266,-0.015596,-0.112318,-0.219201,-0.127247,-184.58266,35.708456,7.075634,
893,-0.285321,0.319266,-0.015596,-0.044755,-0.133689,-0.026018,-209.319442,52.073757,17.90191,
894,-0.285321,0.319266,-0.015596,-0.031988,-0.023327,0.140287,-228.391312,68.942606,31.371811,
895,-0.283486,0.32844,-0.009174,-0.079069,0.111353,0.304717,-239.532305,85.937341,41.631596,
896,-0.283486,0.32844,-0.009174,-0.097422,0.212898,0.466201,-244.819556,96.952448,46.60413,
897,-0.283486,0.32844,-0.009174,-0.113116,0.30215,0.633844,-243.812461,111.807106,50.128964,
898,-0.283486,0.342202,-0.008257,-0.185998,0.407169,0.815681,-237.266341,128.801841,51.387833,
899,-0.283486,0.342202,-0.008257,-0.232547,0.52341,0.979308,-225.244139,142.019969,47.233564,
900,-0.283486,0.342202,-0.008257,-0.231217,0.617205,1.111601,-208.56412,151.209715,39.932122,
901,-0.283486,0.342202,-0.008257,-0.180146,0.671719,1.277638,-190.247572,155.804588,33.826606,
902,-0.283486,0.342202,-0.008257,-0.117904,0.698441,1.45037,-168.028529,156.811683,30.112942,
903,-0.265138,0.372477,-0.000917,-0.041297,0.732913,1.567667,-144.047068,150.706167,25.392182,
904,-0.265138,0.372477,-0.000917,0.072016,0.758299,1.690052,-119.1844,138.809852,21.17497,
905,-0.257798,0.387156,0,0.181339,0.756963,1.815115,-91.866936,124.269912,19.853157,
906,-0.257798,0.387156,0,0.215652,0.777271,1.923039,-62.535281,105.89042,19.916101,
907,-0.257798,0.387156,0,0.240922,0.791167,1.982223,-33.014796,83.167829,17.209531,
908,-0.247706,0.394495,0.000917,0.25502,0.807735,1.984365,-3.431367,61.20056,14.880623,
909,-0.247706,0.394495,0.000917,0.215652,0.782349,1.985972,24.767306,42.946955,14.062358,
910,-0.247706,0.394495,0.000917,0.174689,0.768186,1.965887,53.028921,29.728827,12.929376,
911,-0.241284,0.398165,-0.000917,0.170966,0.738524,1.928395,77.199212,18.650777,12.425828,
912,-0.241284,0.398165,-0.000917,0.185063,0.704053,1.895723,101.243616,9.712805,14.188245,
913,-0.23578,0.4,-0.004587,0.194107,0.674391,1.843234,122.014959,0.397172,16.328323,
914,-0.23578,0.4,-0.004587,0.212461,0.63217,1.77548,141.590377,-9.422009,16.64304,
915,-0.23578,0.4,-0.004587,0.225494,0.598767,1.704781,158.711,-19.052359,15.950662,
916,-0.236697,0.394495,-0.009174,0.215652,0.545857,1.630064,174.572753,-26.857348,15.698888,
917,-0.236697,0.394495,-0.009174,0.218578,0.492145,1.557758,187.476163,-34.914112,14.81768,
918,-0.236697,0.394495,-0.009174,0.22177,0.428546,1.454654,198.6801,-42.467328,15.447114,
919,-0.233945,0.387156,-0.014679,0.210333,0.366551,1.40163,206.862751,-49.391109,16.26538,
920,-0.233945,0.387156,-0.014679,0.216982,0.309365,1.302543,215.423062,-56.881381,16.45421,
921,-0.233945,0.387156,-0.014679,0.193841,0.264739,1.201047,223.416882,-64.749315,16.957758,
922,-0.233945,0.387156,-0.014679,0.180009,0.232138,1.090981,230.025946,-71.610152,17.838966,
923,-0.233945,0.387156,-0.014679,0.14809,0.203278,0.98145,233.802554,-78.911594,18.720175,
924,-0.238532,0.365138,-0.029358,0.140642,0.16079,0.877275,232.921345,-85.080054,20.230818,
925,-0.238532,0.365138,-0.029358,0.108457,0.115896,0.75248,226.815829,-92.947987,20.104931,
926,-0.242202,0.352294,-0.033028,0.093561,0.055237,0.626078,214.604797,-104.151924,18.27957,
927,-0.242202,0.352294,-0.033028,0.06111,-0.015844,0.516815,198.302439,-115.418804,14.440019,
928,-0.242202,0.352294,-0.033028,0.010305,-0.086658,0.390145,178.978796,-127.315119,8.019786,
929,-0.248624,0.336697,-0.038532,-0.042361,-0.176445,0.277936,154.745561,-135.749543,0.781287,
930,-0.248624,0.336697,-0.038532,-0.10753,-0.252871,0.189026,124.973302,-137.1343,-5.072455,
931,-0.248624,0.336697,-0.038532,-0.178816,-0.331968,0.075479,90.795001,-135.120109,-9.415554,
932,-0.253211,0.324771,-0.03945,-0.2509,-0.386749,-0.022001,50.259409,-128.133384,-11.744463,
933,-0.253211,0.324771,-0.03945,-0.305961,-0.422022,-0.082792,7.520796,-116.237069,-11.555632,
934,-0.263303,0.314679,-0.038532,-0.375386,-0.40973,-0.137959,-33.958948,-98.172295,-8.912007,
935,-0.263303,0.314679,-0.038532,-0.432042,-0.410264,-0.152152,-76.445787,-76.142082,-4.820681,
936,-0.263303,0.314679,-0.038532,-0.4488,-0.375258,-0.154562,-120.254439,-47.817522,-0.918187,
937,-0.266972,0.311009,-0.03211,-0.445874,-0.306582,-0.133674,-158.96467,-17.793489,0.340683,
938,-0.266972,0.311009,-0.03211,-0.424062,-0.185263,-0.088951,-194.21301,12.482317,0.844231,
939,-0.277982,0.318349,-0.02844,-0.372726,-0.069823,0.018169,-223.481722,40.303329,2.354874,
940,-0.277982,0.318349,-0.02844,-0.333359,0.038135,0.171887,-244.567783,66.613698,5.313217,
941,-0.277982,0.318349,-0.02844,-0.337082,0.181098,0.339799,-256.023493,93.36467,8.271559,
942,-0.277982,0.329358,-0.020183,-0.338412,0.323261,0.514137,-260.555423,117.912622,6.005595,
943,-0.277982,0.329358,-0.020183,-0.310749,0.436296,0.662231,-255.645832,136.103283,0.970117,
944,-0.277982,0.329358,-0.020183,-0.267392,0.521272,0.856119,-243.875404,153.098019,-3.876529,
945,-0.269725,0.344037,-0.016514,-0.192382,0.553072,1.032332,-228.580142,167.197355,-8.282572,
946,-0.269725,0.344037,-0.016514,-0.077207,0.56964,1.203725,-210.263594,173.176984,-10.296763,
947,-0.263303,0.362385,-0.012844,0.063504,0.580863,1.368155,-189.366363,170.029811,-7.086646,
948,-0.263303,0.362385,-0.012844,0.182137,0.599034,1.518659,-166.266112,160.651235,0.6554,
949,-0.263303,0.362385,-0.012844,0.264595,0.624688,1.650149,-140.899895,147.433107,9.215711,
950,-0.255963,0.37156,-0.011927,0.329498,0.658358,1.774141,-114.023035,129.305389,15.321228,
951,-0.255963,0.37156,-0.011927,0.373653,0.681606,1.871889,-84.376663,108.408158,19.223722,
952,-0.255963,0.37156,-0.011927,0.390676,0.685614,1.924913,-54.604404,85.119076,22.307952,
953,-0.244954,0.379817,-0.011927,0.342531,0.684813,1.947409,-25.587467,62.270598,24.133313,
954,-0.244954,0.379817,-0.011927,0.280555,0.676529,1.930269,2.359432,40.051555,22.685613,
955,-0.236697,0.387156,-0.010092,0.242784,0.649539,1.883136,28.29214,23.686254,19.853157,
956,-0.236697,0.387156,-0.010092,0.238794,0.60037,1.831986,52.2736,10.908731,17.209531,
957,-0.236697,0.387156,-0.010092,0.241188,0.56964,1.802528,73.926152,-1.176415,15.321228,
958,-0.230275,0.391743,-0.014679,0.262201,0.541849,1.7645,93.249796,-13.953938,13.307037,
959,-0.230275,0.391743,-0.014679,0.277629,0.521005,1.719242,110.055701,-27.42384,11.418733,
960,-0.23211,0.386239,-0.016514,0.31141,0.486801,1.637027,125.66568,-42.530271,8.523333,
961,-0.23211,0.386239,-0.016514,0.325508,0.442709,1.559365,139.765017,-56.881381,6.697973,
962,-0.23211,0.386239,-0.016514,0.311676,0.388997,1.486255,151.157784,-70.791887,6.257369,
963,-0.23211,0.377982,-0.022018,0.301302,0.344104,1.360389,159.718095,-84.324732,5.879708,
964,-0.23211,0.377982,-0.022018,0.274437,0.29253,1.256214,166.830707,-97.165199,5.061443,
965,-0.23211,0.377982,-0.022018,0.226558,0.250042,1.127669,171.299693,-110.509214,3.361969,
966,-0.23578,0.370642,-0.027523,0.172561,0.202743,0.994304,171.362636,-122.909077,0.214796,
967,-0.23578,0.370642,-0.027523,0.119895,0.143687,0.82318,165.445951,-134.2389,-3.561812,
968,-0.243119,0.361468,-0.027523,0.06643,0.06646,0.65018,153.234918,-141.980947,-8.78612,
969,-0.243119,0.361468,-0.027523,0.013231,-0.019853,0.495123,135.044257,-144.498685,-10.863254,
970,-0.243119,0.361468,-0.027523,-0.062311,-0.113113,0.369257,112.825214,-144.624572,-12.562728,
971,-0.251376,0.349541,-0.02844,-0.11817,-0.184729,0.240712,85.570693,-142.547438,-14.388088,
972,-0.251376,0.349541,-0.02844,-0.188126,-0.231226,0.136805,54.602508,-134.427731,-15.835788,
973,-0.251376,0.349541,-0.02844,-0.263402,-0.254474,0.0412,21.683076,-122.594359,-16.276392,
974,-0.26055,0.342202,-0.02844,-0.310483,-0.26543,-0.007004,-12.054622,-107.613814,-16.465222,
975,-0.26055,0.342202,-0.02844,-0.334688,-0.254474,-0.026018,-47.177075,-89.171379,-14.954579,
976,-0.26789,0.337615,-0.022018,-0.332561,-0.237372,-0.044764,-80.537112,-69.784792,-12.625671,
977,-0.26789,0.337615,-0.022018,-0.338146,-0.180988,-0.003522,-110.561145,-50.838809,-10.674424,
978,-0.26789,0.337615,-0.022018,-0.316867,-0.116587,0.03638,-138.759817,-32.648147,-10.61148,
979,-0.276147,0.337615,-0.016514,-0.293193,-0.048713,0.086726,-161.608295,-15.08692,-10.737367,
980,-0.276147,0.337615,-0.016514,-0.271648,0.026644,0.180992,-178.854805,2.789024,-10.42265,
981,-0.277064,0.343119,-0.011009,-0.255422,0.103871,0.302842,-192.261763,21.105572,-9.100837,
982,-0.277064,0.343119,-0.011009,-0.26553,0.192055,0.446651,-199.122601,36.14906,-8.408459,
983,-0.277064,0.343119,-0.011009,-0.289204,0.302952,0.608671,-197.863731,49.870736,-9.352611,
984,-0.277064,0.352294,-0.00367,-0.283352,0.395411,0.734537,-192.765311,62.396485,-11.744463,
985,-0.277064,0.352294,-0.00367,-0.275106,0.466492,0.913964,-180.931939,75.992274,-12.814501,
986,-0.277064,0.352294,-0.00367,-0.294257,0.54078,1.082411,-163.811317,91.791084,-12.05918,
987,-0.276147,0.362385,0.000917,-0.272712,0.573648,1.232647,-145.620655,102.99502,-12.499784,
988,-0.276147,0.362385,0.000917,-0.159399,0.590216,1.334144,-126.045237,110.548236,-10.926198,
989,-0.273394,0.373394,0.008257,-0.056459,0.592086,1.46376,-104.266798,115.772544,-2.995321,
990,-0.273394,0.373394,0.008257,0.00339,0.61293,1.582128,-81.481264,115.457827,6.572086,
991,-0.273394,0.373394,0.008257,0.082656,0.628696,1.684696,-57.310973,110.359406,14.628849,
992,-0.266055,0.377982,0.005505,0.127077,0.649272,1.776016,-30.434114,102.554416,23.377991,
993,-0.266055,0.377982,0.005505,0.148888,0.667176,1.816722,-2.801932,91.035762,28.791129,
994,-0.266055,0.377982,0.005505,0.158198,0.675727,1.840288,24.011984,79.076504,30.742377,
995,-0.259633,0.384404,0.002752,0.164848,0.659426,1.846983,51.329448,65.984263,30.868263,
996,-0.259633,0.384404,0.002752,0.175487,0.621214,1.803867,75.562682,52.514361,29.924111,
997,-0.254128,0.385321,0.000917,0.195171,0.570174,1.774141,97.907612,38.981516,29.420564,
998,-0.254128,0.385321,0.000917,0.205013,0.534634,1.717635,119.497221,25.574558,28.917016,
999,-0.254128,0.385321,0.000917,0.215652,0.50711,1.685231,138.0026,11.726996,27.469316,
1000,-0.254128,0.383486,-0.008257,0.231612,0.467828,1.597928,154.619675,-2.435284,25.392182,
1001,-0.254128,0.383486,-0.008257,0.24571,0.41759,1.51491,167.523085,-18.297037,22.937387,
1002,-0.250459,0.377982,-0.011009,0.253424,0.355862,1.444478,177.153435,-34.788225,19.979044,
1003,-0.250459,0.377982,-0.011009,0.251828,0.289056,1.351551,183.384838,-51.782961,17.020701,
1004,-0.250459,0.377982,-0.011009,0.224164,0.236681,1.228095,185.084312,-69.218301,13.307037,
1005,-0.246789,0.368807,-0.018349,0.198097,0.190184,1.090713,182.440686,-87.157188,8.963938,
1006,-0.246789,0.368807,-0.018349,0.15873,0.130326,0.956277,175.202188,-105.34785,4.432008,
1007,-0.246789,0.368807,-0.018349,0.106595,0.092648,0.839248,164.816516,-121.33549,-1.862338,
1008,-0.251376,0.357798,-0.023853,0.052598,0.066995,0.704276,152.605484,-132.917088,-7.716081,
1009,-0.251376,0.357798,-0.023853,-0.017092,0.030652,0.563948,136.806674,-141.099738,-14.010427,
1010,-0.257798,0.346789,-0.026606,-0.086782,-0.031076,0.417729,116.790652,-146.449933,-19.675339,
1011,-0.257798,0.346789,-0.026606,-0.162325,-0.113113,0.239105,91.613266,-146.701706,-24.333156,
1012,-0.257798,0.346789,-0.026606,-0.255954,-0.207443,0.11672,60.07859,-140.21853,-25.403195,
1013,-0.26422,0.336697,-0.024771,-0.360224,-0.263292,-0.021197,25.459684,-128.573988,-25.277308,
1014,-0.26422,0.336697,-0.024771,-0.432574,-0.318073,-0.116802,-12.621113,-110.06861,-25.277308,
1015,-0.26422,0.336697,-0.024771,-0.487901,-0.331968,-0.177593,-52.212553,-85.709489,-25.843799,
1016,-0.274312,0.331193,-0.017431,-0.477261,-0.315133,-0.182146,-91.992823,-60.532102,-26.59912,
1017,-0.274312,0.331193,-0.017431,-0.452524,-0.252871,-0.140101,-129.129467,-35.41766,-26.473233,
1018,-0.283486,0.331193,-0.014679,-0.420338,-0.167359,-0.08547,-162.111843,-13.135673,-27.039725,
1019,-0.283486,0.331193,-0.014679,-0.355702,-0.071427,-0.017984,-190.373459,8.957483,-26.284403,
1020,-0.283486,0.331193,-0.014679,-0.267392,0.01355,0.06316,-212.90722,28.469958,-23.074286,
1021,-0.285321,0.338532,-0.008257,-0.144503,0.075546,0.185277,-230.846107,45.40175,-15.52107,
1022,-0.285321,0.338532,-0.008257,-0.047681,0.118568,0.328283,-244.69367,60.004634,-0.918187,
1023,-0.285321,0.344037,0,0.023605,0.182167,0.500211,-254.953454,71.649175,16.391266,
1024,-0.285321,0.344037,0,-0.009378,0.313641,0.734002,-256.841758,84.804359,32.693624,
1025,-0.285321,0.344037,0,-0.163123,0.512454,0.969131,-242.112987,98.714865,41.002161,
1026,-0.281651,0.357798,0.004587,-0.324049,0.686683,1.141595,-216.306167,110.170576,34.707815,
1027,-0.281651,0.357798,0.004587,-0.381237,0.774599,1.248715,-185.526812,121.752173,22.748556,
1028,-0.281651,0.357798,0.004587,-0.348786,0.761505,1.382884,-154.180966,136.04034,16.076549,
1029,-0.277064,0.373394,0.011009,-0.287342,0.754558,1.532585,-121.765082,146.426012,14.81768,
1030,-0.277064,0.373394,0.011009,-0.209671,0.764712,1.643722,-87.901497,148.251372,15.510058,
1031,-0.268807,0.383486,0.012844,-0.0929,0.78609,1.754324,-53.97497,145.355973,17.587192,
1032,-0.268807,0.383486,0.012844,0.018817,0.780745,1.846715,-17.153042,142.145856,20.104931,
1033,-0.268807,0.383486,0.012844,0.13745,0.766315,1.893313,17.528807,136.04034,21.804404,
1034,-0.262385,0.390826,0.012844,0.236666,0.748946,1.928127,51.518278,123.073986,23.503878,
1035,-0.262385,0.390826,0.012844,0.292525,0.720888,1.932679,81.605255,102.743247,24.007426,
1036,-0.262385,0.390826,0.012844,0.33136,0.687218,1.891438,107.537962,80.146543,23.503878,
1037,-0.252294,0.391743,0.007339,0.349447,0.637247,1.844037,129.882893,58.053386,24.070369,
1038,-0.252294,0.391743,0.007339,0.348117,0.585139,1.774945,149.45831,37.40793,24.385087,
1039,-0.246789,0.388991,-0.000917,0.357959,0.534366,1.701835,165.445951,17.832512,24.322143,
1040,-0.246789,0.388991,-0.000917,0.368865,0.491611,1.620691,178.852909,-2.37234,23.566821,
1041,-0.246789,0.388991,-0.000917,0.362481,0.436029,1.542761,189.175637,-22.262476,23.944482,
1042,-0.244037,0.382569,-0.012844,0.330296,0.381782,1.452244,197.04357,-40.704911,23.440935,
1043,-0.244037,0.382569,-0.012844,0.29944,0.317916,1.381545,202.079047,-58.643798,21.867348,
1044,-0.242202,0.373394,-0.019266,0.252094,0.255654,1.278709,205.729768,-71.987813,19.72727,
1045,-0.242202,0.373394,-0.019266,0.210333,0.195796,1.140792,204.533843,-85.772432,15.510058,
1046,-0.242202,0.373394,-0.019266,0.161656,0.150635,1.010105,200.064856,-97.35403,11.985224,
1047,-0.244037,0.36422,-0.025688,0.108457,0.106543,0.91932,191.504545,-107.424984,7.768012,
1048,-0.244037,0.36422,-0.025688,0.05978,0.075813,0.774708,180.992986,-114.285822,3.487856,
1049,-0.244037,0.36422,-0.025688,0.032649,0.050427,0.665445,164.942403,-121.209603,-0.918187,
1050,-0.245872,0.350459,-0.030275,0.013231,0.00874,0.529402,147.82178,-128.699875,-4.443021,
1051,-0.245872,0.350459,-0.030275,-0.025604,-0.06341,0.38961,126.672776,-134.301844,-9.037894,
1052,-0.255046,0.33945,-0.029358,-0.072951,-0.153731,0.241516,100.677125,-138.644943,-14.136314,
1053,-0.255046,0.33945,-0.029358,-0.129873,-0.237906,0.112971,69.331279,-138.95966,-17.346431,
1054,-0.255046,0.33945,-0.029358,-0.208873,-0.309522,0.023793,35.593582,-130.147575,-17.912922,
1055,-0.26422,0.33211,-0.029358,-0.305695,-0.342657,-0.066991,0.093467,-115.041143,-16.842883,
1056,-0.26422,0.33211,-0.029358,-0.382035,-0.352812,-0.148938,-36.791404,-93.514478,-15.017523,
1057,-0.26422,0.33211,-0.029358,-0.404113,-0.345864,-0.186163,-75.249861,-65.819354,-10.737367,
1058,-0.27156,0.324771,-0.025688,-0.411295,-0.311392,-0.152688,-110.812919,-36.110038,-3.561812,
1059,-0.27156,0.324771,-0.025688,-0.378045,-0.240044,-0.117874,-144.298842,-6.526609,2.040156,
1060,-0.278899,0.327523,-0.018349,-0.296385,-0.158274,-0.06833,-173.882271,19.028438,7.01269,
1061,-0.278899,0.327523,-0.018349,-0.214725,-0.069823,0.027542,-196.793692,42.191633,14.880623,
1062,-0.278899,0.327523,-0.018349,-0.18121,0.018093,0.184742,-214.166089,66.865471,25.077465,
1063,-0.282569,0.334862,-0.014679,-0.218449,0.147963,0.368185,-224.048213,93.112896,32.693624,
1064,-0.282569,0.334862,-0.014679,-0.327507,0.344104,0.608939,-219.893944,121.248625,34.204267,
1065,-0.278899,0.346789,-0.011009,-0.427786,0.514057,0.787294,-203.213926,148.691976,25.329239,
1066,-0.278899,0.346789,-0.011009,-0.383631,0.60812,0.914767,-183.323791,168.267394,12.488772,
1067,-0.278899,0.346789,-0.011009,-0.25489,0.584604,1.047061,-163.181882,180.604313,6.131482,
1068,-0.270642,0.361468,-0.006422,-0.123489,0.54078,1.181765,-144.361786,186.017451,7.768012,
1069,-0.270642,0.361468,-0.006422,-0.000866,0.545055,1.33468,-125.038142,184.632695,11.229902,
1070,-0.270642,0.361468,-0.006422,0.124417,0.583268,1.500181,-102.567325,177.26831,14.628849,
1071,-0.26055,0.369725,-0.006422,0.23241,0.619076,1.633546,-77.893486,164.55373,17.524249,
1072,-0.26055,0.369725,-0.006422,0.331094,0.633239,1.724598,-51.016627,146.048351,18.657231,
1073,-0.247706,0.377982,-0.011927,0.399454,0.642324,1.800386,-24.958032,120.304473,17.398362,
1074,-0.247706,0.377982,-0.011927,0.426319,0.627894,1.840556,-0.347137,91.476366,16.831871,
1075,-0.247706,0.377982,-0.011927,0.369663,0.636713,1.87055,23.886097,61.704107,15.573001,
1076,-0.237615,0.380734,-0.014679,0.296515,0.647401,1.864926,49.504087,36.337891,11.481676,
1077,-0.237615,0.380734,-0.014679,0.264329,0.650074,1.832522,73.359661,17.706625,5.56499,
1078,-0.237615,0.380734,-0.014679,0.265659,0.601439,1.815918,96.459913,4.047893,2.1031,
1079,-0.233028,0.383486,-0.018349,0.281619,0.551736,1.781907,116.161217,-9.673782,0.844231,
1080,-0.233028,0.383486,-0.018349,0.312474,0.520738,1.726473,134.477766,-25.78731,-0.036978,
1081,-0.233028,0.381651,-0.022018,0.325508,0.494283,1.663272,151.598388,-40.893741,-0.414639,
1082,-0.233028,0.381651,-0.022018,0.317262,0.458208,1.589894,165.949498,-53.671265,-0.225808,
1083,-0.233028,0.381651,-0.022018,0.304494,0.409306,1.523212,177.656983,-64.30871,0.907174,
1084,-0.23211,0.374312,-0.026606,0.281087,0.358,1.441532,187.790881,-73.372569,3.424913,
1085,-0.23211,0.374312,-0.026606,0.260073,0.313908,1.364673,195.344097,-81.177559,5.753821,
1086,-0.23578,0.358716,-0.031193,0.215652,0.263937,1.273621,200.190743,-87.849566,7.075634,
1087,-0.23578,0.358716,-0.031193,0.181073,0.203278,1.160609,200.631348,-93.892139,7.138577,
1088,-0.23578,0.358716,-0.031193,0.147292,0.146092,1.044383,197.421231,-99.808825,5.313217,
1089,-0.240367,0.351376,-0.036697,0.099945,0.081157,0.913696,190.245676,-107.362041,2.354874,
1090,-0.240367,0.351376,-0.036697,0.058184,-0.010767,0.785687,177.279322,-113.971104,-0.918187,
1091,-0.240367,0.351376,-0.036697,0.007113,-0.085589,0.65259,161.039908,-115.544691,-3.058264,
1092,-0.246789,0.337615,-0.037615,-0.032254,-0.143844,0.516815,139.765017,-116.677674,-5.387173,
1093,-0.246789,0.337615,-0.037615,-0.078803,-0.194883,0.391484,114.650574,-115.544691,-7.52725,
1094,-0.253211,0.326606,-0.040367,-0.119766,-0.213322,0.275794,85.633637,-111.70514,-8.282572,
1095,-0.253211,0.326606,-0.040367,-0.185998,-0.240578,0.179118,54.854282,-108.43208,-8.597289,
1096,-0.253211,0.326606,-0.040367,-0.253826,-0.271042,0.084048,22.375454,-103.459546,-9.856159,
1097,-0.261468,0.316514,-0.036697,-0.299843,-0.305246,-0.006201,-11.928735,-95.151008,-11.366802,
1098,-0.261468,0.316514,-0.036697,-0.300375,-0.344528,-0.080114,-47.428849,-80.044577,-10.233819,
1099,-0.261468,0.316514,-0.036697,-0.305163,-0.351476,-0.117338,-84.376663,-60.783876,-5.764833,
1100,-0.268807,0.315596,-0.033945,-0.321655,-0.305781,-0.102341,-118.303191,-39.320155,-2.80649,
1101,-0.268807,0.315596,-0.033945,-0.308089,-0.240846,-0.098324,-149.774924,-19.996511,-2.302943,
1102,-0.276147,0.315596,-0.026606,-0.26154,-0.176178,-0.066991,-178.665974,-1.742906,-0.855243,
1103,-0.276147,0.315596,-0.026606,-0.230153,-0.104028,0.010403,-202.269774,16.88836,4.180234,
1104,-0.276147,0.315596,-0.026606,-0.219513,-0.021723,0.086726,-222.915231,33.820152,9.152768,
1105,-0.275229,0.326606,-0.022018,-0.208341,0.068331,0.231339,-238.902871,49.870736,13.621754,
1106,-0.275229,0.326606,-0.022018,-0.254358,0.200338,0.41023,-246.204313,70.075588,16.076549,
1107,-0.272477,0.336697,-0.019266,-0.342668,0.36281,0.597423,-241.546496,90.721045,11.355789,
1108,-0.272477,0.336697,-0.019266,-0.349318,0.490542,0.740429,-230.72022,109.100537,0.970117,
1109,-0.272477,0.336697,-0.019266,-0.264998,0.546391,0.927354,-216.494997,122.507495,-5.953664,
1110,-0.27156,0.352294,-0.011927,-0.179348,0.56189,1.105442,-199.311431,132.578449,-6.960759,
1111,-0.27156,0.352294,-0.011927,-0.096092,0.581665,1.268533,-181.183713,134.655584,-5.072455,
1112,-0.27156,0.352294,-0.011927,-0.004856,0.632971,1.430552,-160.034709,130.249541,-1.988225,
1113,-0.266055,0.36422,-0.009174,0.079996,0.667176,1.573023,-135.801474,122.759269,1.725439,
1114,-0.266055,0.36422,-0.009174,0.14676,0.682942,1.703442,-107.854576,114.513675,4.935556,
1115,-0.258716,0.373394,-0.004587,0.186659,0.695769,1.808688,-79.78179,101.295547,7.516238,
1116,-0.258716,0.373394,-0.004587,0.219908,0.713405,1.866533,-50.764853,82.727225,8.64922,
1117,-0.258716,0.373394,-0.004587,0.223898,0.71875,1.912594,-22.629124,66.361924,9.719259,
1118,-0.252294,0.381651,-0.008257,0.209003,0.722224,1.928127,5.947209,50.248397,10.222807,
1119,-0.252294,0.381651,-0.008257,0.176019,0.717681,1.930537,33.453504,36.086117,9.593372,
1120,-0.252294,0.381651,-0.008257,0.162454,0.698975,1.899472,61.085685,25.700445,7.453294,
1121,-0.244954,0.385321,-0.008257,0.172295,0.667176,1.880994,86.640732,16.384812,6.320312,
1122,-0.244954,0.385321,-0.008257,0.199693,0.638583,1.86198,111.629288,5.558536,4.809669,
1123,-0.244954,0.385321,-0.008257,0.2497,0.592354,1.789406,134.855426,-8.981404,3.424913,
1124,-0.244954,0.385321,-0.008257,0.275501,0.543986,1.723795,155.43794,-24.150779,2.795478,
1125,-0.244954,0.385321,-0.008257,0.290929,0.480387,1.643186,173.565658,-38.313059,3.424913,
1126,-0.243119,0.378899,-0.017431,0.284811,0.422133,1.554277,189.364467,-50.020544,4.620838,
1127,-0.243119,0.378899,-0.017431,0.289067,0.359069,1.470187,201.512556,-60.154442,7.075634,
1128,-0.241284,0.368807,-0.022018,0.280023,0.311236,1.383152,211.142906,-71.421322,9.089824,
1129,-0.241284,0.368807,-0.022018,0.259009,0.255654,1.263177,218.759066,-83.065863,11.54462,
1130,-0.241284,0.368807,-0.022018,0.227622,0.209691,1.11053,222.598617,-95.088065,11.859337,
1131,-0.245872,0.358716,-0.02844,0.202619,0.166936,0.97288,220.962087,-106.354945,11.607563,
1132,-0.245872,0.358716,-0.02844,0.143302,0.1175,0.846746,213.534758,-116.992391,9.90809,
1133,-0.245872,0.358716,-0.02844,0.090901,0.06646,0.699188,201.701387,-128.133384,4.557895,
1134,-0.248624,0.344037,-0.033028,0.035841,-0.0105,0.529937,184.14016,-138.644943,-1.610565,
1135,-0.248624,0.344037,-0.033028,-0.000334,-0.126474,0.366846,158.648056,-148.338237,-7.841968,
1136,-0.256881,0.329358,-0.033945,-0.067631,-0.245923,0.208844,128.686967,-154.506696,-12.24801,
1137,-0.256881,0.329358,-0.033945,-0.139715,-0.376862,0.036915,91.613266,-157.402096,-15.898731,
1138,-0.256881,0.329358,-0.033945,-0.235739,-0.479742,-0.078507,48.434049,-151.548353,-17.912922,
1139,-0.265138,0.320183,-0.033028,-0.324049,-0.533721,-0.182146,2.107658,-137.449017,-17.787035,
1140,-0.265138,0.320183,-0.033028,-0.381503,-0.533454,-0.26329,-48.184171,-113.782274,-15.206353,
1141,-0.265138,0.320183,-0.033028,-0.381769,-0.473863,-0.293283,-98.098339,-87.471906,-12.185067,
1142,-0.276147,0.314679,-0.027523,-0.369534,-0.39049,-0.237848,-144.80239,-63.427502,-7.33842,
1143,-0.276147,0.314679,-0.027523,-0.372992,-0.263292,-0.156705,-185.023264,-41.523176,-4.06536,
1144,-0.276147,0.314679,-0.027523,-0.332295,-0.141706,-0.118945,-219.45334,-20.940663,-3.750642,
1145,-0.276147,0.314679,-0.027523,-0.221375,-0.051385,-0.053334,-247.777899,-0.672867,0.6554,
1146,-0.276147,0.314679,-0.027523,-0.153813,0.04722,0.09851,-268.360412,23.812141,13.747641,
1147,-0.286239,0.322936,-0.011927,-0.155675,0.15117,0.302039,-281.704427,46.282958,27.846977,
1148,-0.286239,0.322936,-0.011927,-0.140513,0.279436,0.465933,-289.57236,63.277694,38.79914,
1149,-0.287156,0.338532,-0.002752,-0.179614,0.431219,0.699991,-284.725713,79.580051,48.303603,
1150,-0.287156,0.338532,-0.002752,-0.363682,0.615068,0.949582,-263.387879,100.225508,48.618321,
1151,-0.287156,0.338532,-0.002752,-0.557325,0.77834,1.156324,-230.783164,122.759269,33.386002,
1152,-0.284404,0.356881,0.002752,-0.569029,0.841939,1.319415,-194.779502,140.7611,11.985224,
1153,-0.284404,0.356881,0.002752,-0.471675,0.833923,1.457333,-156.761648,156.056362,-1.925282,
1154,-0.284404,0.356881,0.002752,-0.346924,0.786624,1.600606,-117.862587,164.301956,-7.086646,
1155,-0.275229,0.369725,0.008257,-0.19052,0.784486,1.732096,-80.977716,161.65833,-8.345515,
1156,-0.275229,0.369725,0.008257,0.002592,0.777806,1.811366,-44.218732,154.293945,-4.128303,
1157,-0.266055,0.379817,0.008257,0.191181,0.749748,1.909113,-7.207975,142.838234,5.250273,
1158,-0.266055,0.379817,0.008257,0.32737,0.729706,1.970439,28.795687,126.472933,15.698888,
1159,-0.266055,0.379817,0.008257,0.381633,0.720888,1.985436,60.959798,101.484377,23.818595,
1160,-0.257798,0.383486,0.001835,0.372855,0.703518,1.938571,89.662018,71.460344,25.203352,
1161,-0.257798,0.383486,0.001835,0.326306,0.654616,1.871889,113.454648,44.14288,21.867348,
1162,-0.257798,0.383486,0.001835,0.290131,0.572312,1.772267,131.960027,22.616215,19.979044,
1163,-0.255046,0.385321,-0.004587,0.25103,0.48787,1.674251,146.122307,3.922006,18.971949,
1164,-0.255046,0.385321,-0.004587,0.245976,0.437632,1.598196,156.759752,-11.562086,18.027797,
1165,-0.255046,0.385321,-0.004587,0.251562,0.390334,1.518123,164.061194,-26.794405,17.587192,
1166,-0.255046,0.385321,-0.004587,0.2497,0.345975,1.431891,168.34135,-42.089667,15.258284,
1167,-0.255046,0.385321,-0.004587,0.260339,0.284781,1.369226,169.726106,-59.147346,12.362885,
1168,-0.249541,0.36789,-0.019266,0.246508,0.233207,1.295581,170.040824,-72.994909,8.838051,
1169,-0.249541,0.36789,-0.019266,0.218046,0.178961,1.177213,167.900746,-87.220132,3.110195,
1170,-0.248624,0.362385,-0.024771,0.190117,0.137274,1.048936,163.80942,-99.808825,-2.61766,
1171,-0.248624,0.362385,-0.024771,0.150484,0.091846,0.919052,157.137413,-109.942723,-6.394268,
1172,-0.248624,0.362385,-0.024771,0.086912,0.061383,0.793186,146.940572,-119.447186,-9.100837,
1173,-0.252294,0.348624,-0.026606,0.023339,0.021567,0.660892,134.666596,-125.993306,-12.310954,
1174,-0.252294,0.348624,-0.026606,-0.001132,-0.030542,0.50155,118.112465,-128.762819,-16.465222,
1175,-0.252294,0.348624,-0.026606,-0.061513,-0.091468,0.349439,98.096443,-129.455197,-18.668244,
1176,-0.259633,0.33945,-0.027523,-0.142375,-0.173506,0.248211,74.555587,-124.986211,-17.787035,
1177,-0.259633,0.33945,-0.027523,-0.238665,-0.228286,0.139751,47.74167,-114.411709,-17.157601,
1178,-0.268807,0.33211,-0.024771,-0.326177,-0.283868,0.042539,16.836429,-98.298182,-16.213449,
1179,-0.268807,0.33211,-0.024771,-0.35517,-0.328494,-0.055208,-17.027155,-77.400951,-13.380993,
1180,-0.268807,0.33211,-0.024771,-0.363948,-0.352812,-0.080649,-52.338439,-49.454053,-7.212533,
1181,-0.277982,0.326606,-0.019266,-0.348786,-0.327693,-0.080917,-87.838554,-18.234094,0.907174,
1182,-0.277982,0.326606,-0.019266,-0.295055,-0.260086,-0.05253,-122.583347,9.775748,8.334503,
1183,-0.277982,0.326606,-0.019266,-0.214459,-0.153998,0.02781,-152.229719,32.435396,15.950662,
1184,-0.280734,0.327523,-0.014679,-0.168442,-0.056729,0.130378,-175.267027,53.332626,23.126217,
1185,-0.280734,0.327523,-0.014679,-0.177752,0.055237,0.271241,-189.806968,71.082684,27.53226,
1186,-0.280734,0.327523,-0.014679,-0.171102,0.158919,0.419335,-196.478975,90.217497,30.112942,
1187,-0.280734,0.327523,-0.014679,-0.157271,0.250844,0.550826,-195.975427,109.604084,32.504794,
1188,-0.280734,0.327523,-0.014679,-0.132001,0.331545,0.722218,-191.443498,124.584629,35.589023,
1189,-0.278899,0.344954,-0.007339,-0.117904,0.418125,0.86817,-181.183713,133.459658,38.043819,
1190,-0.278899,0.344954,-0.007339,-0.112052,0.481189,1.022959,-167.587924,139.691061,37.225553,
1191,-0.268807,0.358716,-0.009174,-0.103274,0.531427,1.172928,-150.152585,142.838234,34.833702,
1192,-0.268807,0.358716,-0.009174,-0.088378,0.57926,1.328252,-129.192411,144.789481,31.812415,
1193,-0.268807,0.358716,-0.009174,-0.074813,0.61961,1.445549,-105.462724,144.474764,28.728186,
1194,-0.259633,0.370642,-0.005505,-0.039967,0.657021,1.539547,-80.977716,140.194608,25.203352,
1195,-0.259633,0.370642,-0.005505,0.016423,0.665038,1.626315,-56.366821,132.137845,22.307952,
1196,-0.259633,0.370642,-0.005505,0.086646,0.663969,1.690052,-32.574191,121.059795,20.545535,
1197,-0.252294,0.378899,-0.006422,0.153144,0.663702,1.745754,-9.222166,106.708685,19.664327,
1198,-0.252294,0.378899,-0.006422,0.228686,0.652479,1.771999,12.115669,88.706854,18.153683,
1199,-0.244037,0.388073,-0.011009,0.297047,0.640721,1.807081,32.824069,66.928415,16.580097,
1200,-0.244037,0.388073,-0.011009,0.314602,0.625756,1.803867,53.028921,43.009898,14.628849,
1201,-0.244037,0.388073,-0.011009,0.31274,0.602508,1.769589,71.849018,18.210173,11.670507,
1202,-0.237615,0.385321,-0.012844,0.314602,0.560287,1.738256,88.340206,-3.316492,8.712164,
1203,-0.237615,0.385321,-0.012844,0.297579,0.522876,1.676929,104.516676,-21.821871,6.194425,
1204,-0.234862,0.382569,-0.017431,0.282949,0.48493,1.601677,116.538878,-40.012533,3.299026,
1205,-0.234862,0.382569,-0.017431,0.262733,0.433356,1.526693,126.735719,-54.993077,0.718344,
1206,-0.234862,0.382569,-0.017431,0.242252,0.373766,1.456797,134.666596,-69.595961,-2.932377,
1207,-0.233028,0.377982,-0.022018,0.219376,0.325399,1.379402,142.030981,-83.38058,-7.401363,
1208,-0.233028,0.377982,-0.022018,0.198363,0.271954,1.266123,145.304042,-97.35403,-11.303858,
1209,-0.233028,0.377982,-0.022018,0.150218,0.22038,1.164358,145.241098,-108.495023,-13.947484,
1210,-0.238532,0.36789,-0.025688,0.097285,0.167737,1.013586,141.401547,-116.551787,-15.52107,
1211,-0.238532,0.36789,-0.025688,0.039831,0.12418,0.88156,135.1072,-119.132469,-17.346431,
1212,-0.243119,0.359633,-0.026606,-0.002196,0.0857,0.737215,127.428097,-118.565977,-20.115943,
1213,-0.243119,0.359633,-0.026606,-0.034914,0.042945,0.601172,116.161217,-117.307108,-22.318965,
1214,-0.243119,0.359633,-0.026606,-0.079069,-0.024128,0.481465,100.299464,-116.866504,-23.389004,
1215,-0.253211,0.348624,-0.02844,-0.117638,-0.101623,0.339531,80.283442,-115.041143,-23.829608,
1216,-0.253211,0.348624,-0.02844,-0.149557,-0.184462,0.208844,54.917225,-110.886875,-22.256021,
1217,-0.253211,0.348624,-0.02844,-0.195308,-0.245388,0.117256,24.956136,-101.697129,-19.990057,
1218,-0.257798,0.341284,-0.023853,-0.253294,-0.295092,0.020847,-7.837409,-88.604888,-18.41647,
1219,-0.257798,0.341284,-0.023853,-0.256752,-0.33758,-0.076097,-45.477602,-72.743135,-18.101753,
1220,-0.268807,0.338532,-0.021101,-0.243985,-0.350407,-0.110107,-84.628437,-52.727113,-15.52107,
1221,-0.268807,0.338532,-0.021101,-0.237335,-0.329029,-0.094039,-123.338668,-30.948674,-10.674424,
1222,-0.268807,0.338532,-0.021101,-0.26287,-0.229355,-0.030838,-158.649952,-9.925556,-6.960759,
1223,-0.270642,0.33945,-0.017431,-0.240527,-0.101088,0.031827,-189.11459,10.279296,-3.939473,
1224,-0.270642,0.33945,-0.017431,-0.157537,0.003663,0.091547,-215.865562,27.525806,2.040156,
1225,-0.273394,0.345872,-0.009174,-0.067365,0.088105,0.249282,-234.559772,42.569294,12.236998,
1226,-0.273394,0.345872,-0.009174,-0.067631,0.193925,0.446919,-244.567783,56.983347,23.818595,
1227,-0.273394,0.345872,-0.009174,-0.092634,0.337156,0.616973,-247.211408,66.802528,29.294677,
1228,-0.272477,0.355963,-0.006422,-0.109392,0.466225,0.793186,-240.854118,72.719214,28.97996,
1229,-0.272477,0.355963,-0.006422,-0.168708,0.564028,0.966185,-225.936517,79.894769,26.902825,
1230,-0.272477,0.355963,-0.006422,-0.233611,0.625222,1.142934,-205.479891,88.392137,22.433839,
1231,-0.272477,0.370642,0.004587,-0.262338,0.684813,1.275763,-181.057826,95.693579,17.146588,
1232,-0.272477,0.370642,0.004587,-0.246113,0.731309,1.426,-152.985041,102.428529,12.929376,
1233,-0.263303,0.382569,0.008257,-0.218981,0.777806,1.561507,-120.128552,107.71578,10.789298,
1234,-0.263303,0.382569,0.008257,-0.176954,0.818958,1.668628,-85.635533,107.33812,6.446199,
1235,-0.263303,0.382569,0.008257,-0.08758,0.84381,1.749771,-50.009531,101.987925,2.228987,
1236,-0.257798,0.395413,0.009174,0.002858,0.832586,1.818864,-14.635304,93.490557,-0.036978,
1237,-0.257798,0.395413,0.009174,0.057386,0.82457,1.871085,18.787676,84.049037,-1.044073,
1238,-0.257798,0.395413,0.009174,0.132662,0.79277,1.890902,50.762957,72.215666,-0.351695,
1239,-0.252294,0.399083,0.008257,0.193043,0.760436,1.837878,80.346385,57.361008,1.725439,
1240,-0.252294,0.399083,0.008257,0.235868,0.724629,1.809223,104.705507,40.68099,3.991404,
1241,-0.245872,0.398165,0.007339,0.25635,0.657289,1.752717,126.295115,24.000971,6.509142,
1242,-0.245872,0.398165,0.007339,0.261669,0.597431,1.676662,143.604568,6.628575,7.705068,
1243,-0.245872,0.398165,0.007339,0.261935,0.546926,1.621762,158.333339,-9.422009,8.271559,
1244,-0.245872,0.392661,0.000917,0.260871,0.497222,1.525622,169.600219,-23.017797,7.516238,
1245,-0.245872,0.392661,0.000917,0.268053,0.433891,1.458939,177.9717,-36.047094,5.879708,
1246,-0.246789,0.386239,-0.009174,0.258477,0.380714,1.387972,184.454877,-48.509901,4.306121,
1247,-0.246789,0.386239,-0.009174,0.244646,0.325933,1.309238,188.546202,-60.720933,2.858421,
1248,-0.246789,0.386239,-0.009174,0.2231,0.281307,1.241485,191.567489,-71.358378,2.228987,
1249,-0.247706,0.376147,-0.010092,0.189053,0.238819,1.144809,192.385754,-80.422237,1.096004,
1250,-0.247706,0.376147,-0.010092,0.17203,0.203011,1.057505,190.119789,-90.304362,-0.666413,
1251,-0.247706,0.376147,-0.010092,0.140908,0.185908,0.939137,186.406124,-100.249429,-3.372982,
1252,-0.251376,0.363303,-0.020183,0.088773,0.14636,0.829071,180.174721,-111.831027,-7.779024,
1253,-0.251376,0.363303,-0.020183,0.030787,0.108147,0.681513,170.670258,-121.587264,-14.136314,
1254,-0.256881,0.352294,-0.022936,-0.012304,0.038669,0.548416,156.067374,-130.336405,-20.682435,
1255,-0.256881,0.352294,-0.022936,-0.048479,-0.040696,0.410498,139.009695,-136.693695,-25.717912,
1256,-0.256881,0.352294,-0.022936,-0.111254,-0.129147,0.277401,116.161217,-138.330226,-28.928029,
1257,-0.262385,0.340367,-0.023853,-0.153813,-0.229355,0.155016,85.88541,-137.700791,-30.753389,
1258,-0.262385,0.340367,-0.023853,-0.211001,-0.296962,0.063963,52.021826,-130.651123,-29.431576,
1259,-0.262385,0.340367,-0.023853,-0.277234,-0.331434,-0.013699,14.381634,-116.551787,-26.095573,
1260,-0.27156,0.333945,-0.018349,-0.322985,-0.358691,-0.050923,-24.895089,-97.605804,-22.885456,
1261,-0.27156,0.333945,-0.018349,-0.322453,-0.351208,-0.080649,-65.493624,-78.533934,-18.038809,
1262,-0.279817,0.327523,-0.015596,-0.304099,-0.305246,-0.060029,-104.518572,-57.699646,-11.303858,
1263,-0.279817,0.327523,-0.015596,-0.300109,-0.225881,-0.026553,-139.452195,-34.536451,-4.946568,
1264,-0.279817,0.327523,-0.015596,-0.292395,-0.118992,0.014956,-170.294493,-13.890995,0.718344,
1265,-0.286239,0.329358,-0.011009,-0.262072,-0.023327,0.092886,-194.968332,10.153409,9.719259,
1266,-0.286239,0.329358,-0.011009,-0.248241,0.062986,0.247943,-211.270689,35.016078,20.923196,
1267,-0.287156,0.33578,-0.00367,-0.225365,0.150368,0.38961,-221.782248,59.123425,30.490603,
1268,-0.287156,0.33578,-0.00367,-0.203288,0.26367,0.537971,-226.503008,80.020656,38.169705,
1269,-0.287156,0.33578,-0.00367,-0.238665,0.393807,0.711774,-221.08987,98.840752,42.512805,
1270,-0.285321,0.348624,0.000917,-0.306493,0.508713,0.870848,-208.690007,117.220244,39.932122,
1271,-0.285321,0.348624,0.000917,-0.328571,0.590483,1.029386,-192.38765,132.704336,33.008341,
1272,-0.285321,0.348624,0.000917,-0.293193,0.635376,1.185247,-171.86808,144.160047,25.89573,
1273,-0.279817,0.363303,0.007339,-0.216853,0.644996,1.329859,-148.893715,152.846245,21.615574,
1274,-0.279817,0.363303,0.007339,-0.156473,0.673322,1.485184,-121.261534,156.245192,19.664327,
1275,-0.27156,0.373394,0.007339,-0.075079,0.712336,1.612925,-91.741049,153.412736,17.083645,
1276,-0.27156,0.373394,0.007339,0.048076,0.732913,1.700228,-61.024638,143.845329,16.202436,
1277,-0.27156,0.373394,0.007339,0.148622,0.737188,1.790745,-30.119396,130.501315,17.713079,
1278,-0.258716,0.380734,0.004587,0.240922,0.736921,1.869746,-0.284194,112.940088,18.783118,
1279,-0.258716,0.380734,0.004587,0.285609,0.733714,1.894384,30.1175,90.09161,18.342514,
1280,-0.258716,0.380734,0.004587,0.288535,0.728637,1.879923,59.134438,64.158902,16.013606,
1281,-0.254128,0.387156,0.000917,0.273373,0.698441,1.833593,85.444806,40.68099,12.048167,
1282,-0.254128,0.387156,0.000917,0.274969,0.637514,1.784585,106.40498,20.916742,9.90809,
1283,-0.246789,0.388073,-0.002752,0.25369,0.585139,1.73049,125.66568,3.670232,9.593372,
1284,-0.246789,0.388073,-0.002752,0.24438,0.540245,1.676394,141.149773,-12.946843,9.467485,
1285,-0.246789,0.388073,-0.002752,0.2497,0.504437,1.605159,154.682618,-27.8015,8.775107,
1286,-0.244954,0.379817,-0.011009,0.253956,0.464889,1.531513,166.201272,-40.830798,7.768012,
1287,-0.244954,0.379817,-0.011009,0.255286,0.41278,1.471526,175.265131,-52.790056,5.942651,
1288,-0.247706,0.375229,-0.011927,0.242784,0.358534,1.391186,182.314799,-64.245767,5.627934,
1289,-0.247706,0.375229,-0.011927,0.22576,0.304555,1.322896,187.727937,-74.442608,5.250273,
1290,-0.247706,0.375229,-0.011927,0.186127,0.260464,1.226756,191.567489,-82.625259,4.935556,
1291,-0.246789,0.366055,-0.019266,0.15341,0.220113,1.126866,192.385754,-90.430248,4.872612,
