,,,,,,,,,,
,,,,,,,,,,
,,,,,,,,,,
,,,,,,,,,,
,,,,,,,,,,
,,,,,,,,,,
,,,,,,,,,,
,,,,,,,,,,
,,,,,,,,,,
index,Geomagnetism_X,Geomagnetism_Y,Geomagnetism_Z,Acceleration_X,Acceleration_Y,Acceleration_Z,Angular_velocity_X,Angular_velocity_Y,Angular_velocity_Z, 
1,-0.275229,0.249541,-0.161468,0.062972,-0.265697,0.961365,-0.03242,-0.106376,1.410722,
2,-0.275229,0.249541,-0.161468,0.065898,-0.264896,0.962436,-0.410081,-0.295206,1.096004,
3,-0.275229,0.249541,-0.161468,0.056854,-0.257681,0.955741,-0.347137,-0.421093,1.096004,
4,-0.278899,0.257798,-0.151376,0.064302,-0.266766,0.954938,-0.850685,-0.232263,1.347778,
5,-0.278899,0.257798,-0.151376,0.052066,-0.268102,0.961633,-1.165402,0.145398,1.347778,
6,-0.278899,0.257798,-0.151376,0.05845,-0.269171,0.966185,-1.354233,-0.169319,1.410722,
7,-0.278899,0.257798,-0.151376,0.060312,-0.264094,0.958687,-1.039515,-0.169319,1.033061,
8,-0.278899,0.257798,-0.151376,0.061908,-0.274516,0.957883,-1.480119,0.019511,1.221891,
9,-0.276147,0.259633,-0.155046,0.058982,-0.264361,0.949046,-1.543063,-0.295206,1.473665,
10,-0.276147,0.259633,-0.155046,0.053928,-0.266499,0.950117,-1.920724,-0.54698,1.410722,
11,-0.276147,0.259633,-0.155046,0.058184,-0.262491,0.956544,-2.738989,-1.113471,1.536609,
12,-0.278899,0.26055,-0.153211,0.058184,-0.258215,0.954402,-3.431367,-0.421093,0.781287,
13,-0.278899,0.26055,-0.153211,0.059248,-0.239242,0.966453,-4.627293,0.334229,1.599552,
14,-0.277982,0.26055,-0.155963,0.061642,-0.242182,0.964043,-4.94201,-1.491132,1.788382,
15,-0.277982,0.26055,-0.155963,0.054726,-0.242716,0.972613,-3.809028,-2.498227,1.599552,
16,-0.277982,0.26055,-0.155963,0.05978,-0.251802,0.955741,-3.368423,-1.491132,0.844231,
17,-0.280734,0.259633,-0.156881,0.046746,-0.247259,0.953063,-2.298385,-1.742906,1.914269,
18,-0.280734,0.259633,-0.156881,0.058184,-0.258749,0.967256,-2.676045,-2.37234,1.788382,
19,-0.280734,0.259633,-0.156881,0.052864,-0.252069,0.957883,-3.557254,-2.938832,1.725439,
20,-0.277982,0.263303,-0.155046,0.048076,-0.249664,0.971274,-3.871971,-2.435284,1.599552,
21,-0.277982,0.263303,-0.155046,0.056588,-0.249931,0.973148,-3.746084,-2.120567,1.914269,
22,-0.277982,0.262385,-0.155046,0.053396,-0.249931,0.971541,-3.620197,-1.868793,1.725439,
23,-0.277982,0.262385,-0.155046,0.05446,-0.251534,0.976094,-3.11665,-1.302302,1.851326,
24,-0.277982,0.262385,-0.155046,0.046746,-0.252069,0.977969,-2.487215,-0.73581,1.410722,
25,-0.278899,0.261468,-0.155046,0.060312,-0.259818,0.98627,-2.046611,-0.924641,1.096004,
26,-0.278899,0.261468,-0.155046,0.05313,-0.264361,0.981986,-1.794837,-0.54698,1.158948,
27,-0.279817,0.263303,-0.154128,0.049406,-0.254207,0.980111,-1.543063,-0.35815,1.221891,
28,-0.279817,0.263303,-0.154128,0.045683,-0.253672,0.975558,-1.543063,-0.295206,1.096004,
29,-0.279817,0.263303,-0.154128,0.050204,-0.251534,0.979575,-1.983667,-0.54698,0.529513,
30,-0.277982,0.26422,-0.153211,0.057652,-0.254474,0.961365,-2.235441,-0.672867,0.529513,
31,-0.277982,0.26422,-0.153211,0.057918,-0.247793,0.972345,-2.487215,-0.987584,0.277739,
32,-0.277982,0.26422,-0.153211,0.052332,-0.242182,0.977165,-2.235441,-0.987584,0.529513,
33,-0.281651,0.265138,-0.155963,0.05712,-0.237104,0.978236,-2.109554,-1.302302,0.6554,
34,-0.281651,0.265138,-0.155963,0.05712,-0.243251,0.969131,-2.235441,-1.679962,0.844231,
35,-0.281651,0.26422,-0.155046,0.05047,-0.232562,0.968328,-1.794837,-2.309397,0.592457,
36,-0.281651,0.26422,-0.155046,0.046214,-0.230691,0.970738,-1.228346,-1.868793,0.6554,
37,-0.281651,0.26422,-0.155046,0.046214,-0.232294,0.991894,-1.228346,-2.18351,0.844231,
38,-0.277064,0.26422,-0.155046,0.054194,-0.244052,0.975023,-1.228346,-2.435284,1.410722,
39,-0.277064,0.26422,-0.155046,0.045151,-0.238975,0.974755,-1.228346,-2.057623,1.347778,
40,-0.277064,0.26422,-0.155046,0.047278,-0.240846,0.988145,-1.66895,-1.805849,1.473665,
41,-0.279817,0.263303,-0.151376,0.048608,-0.256344,0.984128,-1.291289,-1.491132,1.788382,
42,-0.279817,0.263303,-0.151376,0.046746,-0.248862,0.985735,-1.983667,-1.617019,1.788382,
43,-0.279817,0.263303,-0.151376,0.039033,-0.244587,0.984128,-1.543063,-1.050528,1.410722,
44,-0.279817,0.263303,-0.151376,0.043289,-0.248061,0.978772,-1.417176,-1.302302,1.725439,
45,-0.279817,0.263303,-0.151376,0.036905,-0.253138,0.978772,-1.66895,-1.554075,1.284835,
46,-0.277982,0.26422,-0.154128,0.044885,-0.248595,0.990823,-1.543063,-0.987584,1.347778,
47,-0.277982,0.26422,-0.154128,0.031851,-0.248862,0.994572,-1.920724,-0.987584,1.096004,
48,-0.278899,0.26422,-0.153211,0.036639,-0.250198,0.988948,-1.417176,-0.861697,1.096004,
49,-0.278899,0.26422,-0.153211,0.034245,-0.245656,0.988145,-1.66895,-1.554075,0.718344,
50,-0.278899,0.26422,-0.153211,0.031585,-0.248595,0.991091,-0.913628,-0.861697,0.151852,
51,-0.279817,0.266972,-0.153211,0.034777,-0.249397,0.988413,-0.850685,-0.484037,0.088909,
52,-0.279817,0.266972,-0.153211,0.035043,-0.252069,0.991626,-1.291289,-0.924641,-0.288752,
53,-0.279817,0.266972,-0.153211,0.032649,-0.247526,0.994304,-1.228346,-0.672867,-0.603469,
54,-0.277982,0.266972,-0.153211,0.029457,-0.256612,0.99002,-0.724798,-0.924641,-0.7923,
55,-0.277982,0.266972,-0.153211,0.037703,-0.258482,0.992162,-0.284194,-1.050528,-1.295847,
56,-0.276147,0.266055,-0.156881,0.034511,-0.262491,0.994304,1.100563,-0.609923,-1.799395,
57,-0.276147,0.266055,-0.156881,0.032117,-0.268637,0.990287,2.170601,-0.106376,-2.302943,
58,-0.276147,0.266055,-0.156881,0.020413,-0.269973,0.999928,2.86298,0.460115,-3.561812,
59,-0.279817,0.266972,-0.154128,0.017753,-0.29429,1.011176,2.988867,0.837776,-5.387173,
60,-0.279817,0.266972,-0.154128,0.018019,-0.322616,1.014925,1.667054,1.656041,-7.464307,
61,-0.279817,0.266972,-0.154128,0.007113,-0.329296,1.003142,1.037619,1.656041,-9.604385,
62,-0.278899,0.263303,-0.154128,0.017487,-0.347467,0.979308,2.044715,1.593098,-12.310954,
63,-0.278899,0.263303,-0.154128,0.00339,-0.364035,0.946368,4.940114,0.837776,-16.465222,
64,-0.276147,0.26422,-0.153211,-0.006984,-0.399041,0.938602,5.066001,-1.176415,-23.640777,
65,-0.276147,0.26422,-0.153211,-0.006718,-0.42897,0.921463,5.947209,-4.197701,-30.942219,
66,-0.276147,0.26422,-0.153211,0.001262,-0.47707,0.924141,11.675065,-8.918461,-40.320796,
67,-0.277982,0.263303,-0.152294,-0.0006,-0.521162,0.902984,19.794772,-13.890995,-51.084128,
68,-0.277982,0.263303,-0.152294,-0.029062,-0.512878,0.83041,30.1175,-22.514249,-63.672821,
69,-0.281651,0.259633,-0.153211,-0.02454,-0.526506,0.837909,36.097129,-29.500974,-76.890949,
70,-0.281651,0.259633,-0.153211,0.018019,-0.51368,0.860939,41.00672,-35.165886,-88.976095,
71,-0.281651,0.259633,-0.153211,0.022541,-0.505663,0.853173,52.651261,-44.670349,-99.739427,
72,-0.283486,0.253211,-0.153211,-0.012304,-0.498715,0.811396,62.973989,-51.657074,-112.076346,
73,-0.283486,0.253211,-0.153211,-0.016294,-0.488293,0.803898,70.778979,-61.224481,-124.979757,
74,-0.283486,0.253211,-0.153211,-0.014432,-0.470657,0.804166,77.325099,-71.798983,-136.372524,
75,-0.288073,0.244037,-0.149541,0.006315,-0.441262,0.807647,84.374767,-81.492276,-144.744005,
76,-0.288073,0.244037,-0.149541,-0.00326,-0.395834,0.828,92.05387,-90.367305,-151.101295,
77,-0.294495,0.233028,-0.150459,0.015891,-0.356018,0.847549,99.732973,-96.913425,-156.82915,
78,-0.294495,0.233028,-0.150459,0.025201,-0.320478,0.877811,108.104454,-100.564146,-160.416928,
79,-0.294495,0.233028,-0.150459,0.020413,-0.288144,0.911822,115.909443,-103.459546,-159.72455,
80,-0.305505,0.214679,-0.145872,0.017753,-0.245656,0.944761,119.686051,-104.970189,-156.388546,
81,-0.305505,0.214679,-0.145872,0.021211,-0.212787,0.966721,118.301295,-104.592528,-149.464765,
82,-0.305505,0.214679,-0.145872,0.015359,-0.157205,0.995643,112.006948,-101.823016,-140.778566,
83,-0.314679,0.195413,-0.142202,0.032383,-0.120863,1.034742,102.439542,-95.528669,-129.259912,
84,-0.314679,0.195413,-0.142202,0.045417,-0.078107,1.081072,92.683305,-85.583602,-115.034689,
85,-0.314679,0.195413,-0.142202,0.04648,-0.02012,1.13008,82.990011,-72.239587,-97.473462,
86,-0.314679,0.195413,-0.142202,0.043023,0.031454,1.175606,71.5343,-55.937229,-76.135628,
87,-0.314679,0.195413,-0.142202,0.046214,0.082226,1.221935,53.784243,-36.928303,-51.65062,
88,-0.333945,0.161468,-0.129358,0.034511,0.120172,1.259427,31.628143,-16.471677,-22.759569,
89,-0.333945,0.161468,-0.129358,0.020679,0.159988,1.277638,1.667054,6.313858,7.768012,
90,-0.337615,0.153211,-0.127523,0.018817,0.208355,1.322896,-32.385361,30.987696,38.547366,
91,-0.337615,0.153211,-0.127523,0.026797,0.200338,1.348337,-67.193097,57.801612,73.480989,
92,-0.337615,0.153211,-0.127523,0.016689,0.189115,1.341375,-100.804908,81.468355,109.106991,
93,-0.336697,0.150459,-0.124771,-0.053001,0.207553,1.302811,-138.4451,106.142194,140.452837,
94,-0.336697,0.150459,-0.124771,-0.080664,0.166134,1.225952,-182.7573,128.172407,164.11958,
95,-0.336697,0.150459,-0.124771,-0.058853,0.067262,1.238807,-220.019831,144.978312,184.576206,
96,-0.331193,0.163303,-0.131193,-0.042627,0.006068,1.200779,-240.728231,155.238097,207.991175,
97,-0.331193,0.163303,-0.131193,-0.045553,-0.028137,1.159805,-251.176846,163.798408,228.384858,
98,-0.318349,0.188073,-0.13945,-0.055661,-0.055126,1.12151,-256.023493,169.778037,242.610081,
99,-0.318349,0.188073,-0.13945,-0.050607,-0.095209,1.123385,-255.016398,174.121136,252.681035,
100,-0.318349,0.188073,-0.13945,-0.055129,-0.144646,1.094998,-251.176846,176.00944,257.968286,
101,-0.308257,0.222936,-0.146789,-0.073749,-0.182324,1.078662,-245.637821,174.813514,261.430177,
102,-0.308257,0.222936,-0.146789,-0.056725,-0.239242,1.066075,-238.147549,170.533359,260.297195,
103,-0.308257,0.222936,-0.146789,-0.061779,-0.297229,1.07036,-228.202482,166.316147,256.017039,
104,-0.286239,0.262385,-0.148624,-0.068961,-0.366707,1.062594,-215.236128,163.10603,247.645558,
105,-0.286239,0.262385,-0.148624,-0.088378,-0.475467,1.048132,-202.458604,157.755835,232.853844,
106,-0.286239,0.262385,-0.148624,-0.114978,-0.620301,0.998321,-195.094219,147.873711,210.823631,
107,-0.286239,0.262385,-0.148624,-0.117106,-0.768075,0.931103,-194.338897,133.648488,182.687902,
108,-0.286239,0.262385,-0.148624,-0.090506,-0.93215,0.837373,-192.57648,115.646657,146.369522,
109,-0.241284,0.322018,-0.156881,-0.050607,-1.090345,0.73427,-181.057826,93.805275,101.113171,
110,-0.241284,0.322018,-0.156881,-0.042893,-1.226094,0.624739,-155.188062,65.921319,47.988886,
111,-0.229358,0.345872,-0.153211,0.019881,-1.291296,0.548951,-115.659566,37.722647,-14.702805,
112,-0.229358,0.345872,-0.153211,0.058716,-1.329509,0.500479,-63.60532,10.656957,-75.380306,
113,-0.229358,0.345872,-0.153211,0.072282,-1.290495,0.43701,-0.03242,-20.751832,-137.75728,
114,-0.217431,0.36422,-0.154128,0.063504,-1.168909,0.382379,67.442975,-55.748399,-197.112968,
115,-0.217431,0.36422,-0.154128,0.051002,-0.976776,0.376219,134.603653,-95.088065,-249.670761,
116,-0.217431,0.36422,-0.154128,0.034777,-0.774756,0.42362,198.994818,-132.980031,-295.493604,
117,-0.222018,0.362385,-0.148624,-0.021614,-0.560176,0.513334,255.266276,-168.354259,-332.189645,
118,-0.222018,0.362385,-0.148624,-0.033052,-0.406791,0.667855,299.641419,-198.567122,-358.688843,
119,-0.23945,0.33945,-0.149541,-0.048479,-0.288144,0.819698,332.372021,-221.478543,-370.711045,
120,-0.23945,0.33945,-0.149541,-0.076409,-0.182858,0.978772,350.688569,-235.451993,-370.836932,
121,-0.23945,0.33945,-0.149541,-0.097156,-0.104562,1.05081,354.276347,-244.138191,-363.53549,
122,-0.26789,0.302752,-0.151376,-0.129607,-0.044437,1.146415,343.387127,-242.753435,-348.617889,
123,-0.26789,0.302752,-0.151376,-0.136257,0.004999,1.195155,322.615783,-235.829653,-328.161263,
124,-0.295413,0.250459,-0.148624,-0.155409,0.058711,1.23238,293.158242,-224.68866,-303.739198,
125,-0.295413,0.250459,-0.148624,-0.152217,0.12899,1.309774,259.420544,-208.134529,-277.177056,
126,-0.295413,0.250459,-0.148624,-0.095294,0.24256,1.451709,232.10308,-184.027181,-242.935811,
127,-0.322936,0.205505,-0.13945,-0.034382,0.352388,1.550527,213.094154,-152.114844,-200.637802,
128,-0.322936,0.205505,-0.13945,-0.029328,0.48787,1.631671,190.875111,-113.278726,-150.408917,
129,-0.322936,0.205505,-0.13945,-0.046617,0.585406,1.659255,153.801409,-69.155357,-95.270441,
130,-0.33578,0.16789,-0.126606,-0.073217,0.658892,1.654702,91.550322,-22.766023,-37.614227,
131,-0.33578,0.16789,-0.126606,-0.101944,0.692829,1.618817,3.114753,22.427385,20.482592,
132,-0.344954,0.142202,-0.121101,-0.129341,0.728904,1.584806,-104.077968,64.725394,77.13171,
133,-0.344954,0.142202,-0.121101,-0.095294,0.687752,1.608908,-212.403672,105.953363,131.263091,
134,-0.344954,0.142202,-0.121101,-0.08359,0.624955,1.561507,-304.867622,142.271743,180.799598,
135,-0.348624,0.144954,-0.120183,-0.141311,0.540245,1.478757,-376.119625,170.029811,226.622441,
136,-0.348624,0.144954,-0.120183,-0.133065,0.461949,1.421715,-428.236814,184.821525,269.612827,
137,-0.348624,0.144954,-0.120183,-0.08625,0.380179,1.365745,-457.190808,191.241759,306.812415,
138,-0.334862,0.172477,-0.127523,-0.070823,0.302952,1.278709,-468.772406,196.466066,341.368378,
139,-0.334862,0.172477,-0.127523,-0.070291,0.234276,1.192209,-468.520632,196.780784,369.126446,
140,-0.321101,0.223853,-0.137615,-0.081196,0.1656,1.122046,-462.541003,195.710745,389.646016,
141,-0.321101,0.223853,-0.137615,-0.08492,0.116431,1.068485,-454.8619,189.98289,404.689504,
142,-0.321101,0.223853,-0.137615,-0.065503,0.080623,1.036349,-445.04272,179.408387,414.949289,
143,-0.29633,0.285321,-0.142202,-0.026402,0.049091,1.018942,-431.887535,165.812599,420.551257,
144,-0.29633,0.285321,-0.142202,0.002326,0.027178,0.984128,-413.948648,152.720358,420.173597,
145,-0.266972,0.341284,-0.138532,0.008709,0.010076,0.987609,-391.666661,141.13876,414.571628,
146,-0.266972,0.341284,-0.138532,-0.00592,-0.014241,1.008766,-364.663914,129.368332,400.912896,
147,-0.266972,0.341284,-0.138532,-0.02853,-0.081047,1.054292,-335.017542,114.954279,377.309097,
148,-0.23945,0.39633,-0.124771,-0.042627,-0.252069,1.120171,-303.986414,99.092526,344.956155,
149,-0.23945,0.39633,-0.124771,-0.071089,-0.470924,1.134364,-276.291289,83.482546,302.595203,
150,-0.23945,0.39633,-0.124771,-0.09556,-0.709286,1.147219,-254.51285,66.550754,251.359223,
151,-0.209174,0.43945,-0.110092,-0.042095,-0.925469,1.093659,-225.99946,48.548923,192.066478,
152,-0.209174,0.43945,-0.110092,0.004985,-1.124817,1.005552,-185.967416,34.51253,127.045878,
153,-0.178899,0.46789,-0.09633,0.044885,-1.243731,0.885577,-135.423814,20.350251,56.360367,
154,-0.178899,0.46789,-0.09633,0.053396,-1.297175,0.760514,-81.733038,7.25801,-17.598205,
155,-0.178899,0.46789,-0.09633,0.093029,-1.205785,0.811932,-7.963296,-8.477857,-92.500929,
156,-0.169725,0.485321,-0.082569,0.060046,-1.094621,0.65259,72.289622,-39.068381,-165.137688,
157,-0.169725,0.485321,-0.082569,-0.007782,-0.976776,0.564751,142.093925,-68.148262,-236.893238,
158,-0.169725,0.485321,-0.082569,-0.059119,-0.849044,0.551094,206.233316,-99.368221,-299.081382,
159,-0.17156,0.488073,-0.077982,-0.075611,-0.703942,0.637058,259.924092,-130.588179,-351.198571,
160,-0.17156,0.488073,-0.077982,-0.028264,-0.542005,0.77926,301.781496,-151.48541,-386.824572,
161,-0.192661,0.470642,-0.088073,-0.068695,-0.401981,0.867902,328.091865,-167.032446,-404.259912,
162,-0.192661,0.470642,-0.088073,-0.147961,-0.262491,0.913161,341.498823,-181.446499,-415.086188,
163,-0.192661,0.470642,-0.088073,-0.196904,-0.167092,0.95708,342.757692,-191.643341,-418.862796,
164,-0.226606,0.438532,-0.097248,-0.217917,-0.11151,1.030993,334.763872,-196.615874,-417.28921,
165,-0.226606,0.438532,-0.097248,-0.249304,-0.066349,1.07893,321.986349,-198.504178,-410.239542,
166,-0.263303,0.391743,-0.111927,-0.28548,-0.020654,1.12633,307.446408,-197.560026,-398.909718,
167,-0.263303,0.391743,-0.111927,-0.295853,0.034661,1.165697,293.410016,-195.923496,-385.188042,
168,-0.263303,0.391743,-0.111927,-0.266594,0.100665,1.225417,281.954305,-191.769228,-366.367946,
169,-0.29633,0.346789,-0.116514,-0.271382,0.203278,1.279513,275.030524,-183.083029,-342.449429,
170,-0.29633,0.346789,-0.116514,-0.241059,0.33101,1.357175,271.002142,-167.976598,-313.93604,
171,-0.29633,0.346789,-0.116514,-0.208607,0.486266,1.450102,267.162591,-146.95348,-276.107017,
172,-0.327523,0.301835,-0.117431,-0.163921,0.622817,1.508215,258.098732,-123.286737,-232.235422,
173,-0.327523,0.301835,-0.117431,-0.131735,0.764979,1.554277,240.285731,-95.654556,-179.551741,
174,-0.346789,0.263303,-0.111009,-0.126681,0.87748,1.583467,206.925694,-65.441693,-121.140205,
175,-0.346789,0.263303,-0.111009,-0.122691,0.979292,1.585877,155.62677,-32.207543,-62.225122,
176,-0.346789,0.263303,-0.111009,-0.138651,1.035943,1.553205,85.444806,1.781928,-5.009512,
177,-0.355046,0.230275,-0.110092,-0.157803,1.039684,1.524283,3.618301,30.295318,46.100582,
178,-0.355046,0.230275,-0.110092,-0.146897,0.990515,1.485452,-84.691381,55.724478,93.497011,
179,-0.355046,0.230275,-0.110092,-0.072951,0.898056,1.481702,-164.188977,79.642995,138.87925,
180,-0.358716,0.219266,-0.109174,-0.048745,0.757764,1.417698,-224.425874,102.932077,183.820884,
181,-0.358716,0.219266,-0.109174,-0.062045,0.631903,1.324503,-265.024409,120.367417,224.79708,
182,-0.354128,0.231193,-0.112844,-0.063641,0.519936,1.221668,-290.83123,129.179502,259.919534,
183,-0.354128,0.231193,-0.112844,-0.065237,0.426409,1.145076,-306.630039,133.459658,287.929376,
184,-0.354128,0.231193,-0.112844,-0.060183,0.340096,1.106513,-313.239103,135.033244,309.204267,
185,-0.342202,0.266972,-0.117431,-0.065503,0.265541,1.097676,-312.294951,134.718527,323.870095,
186,-0.342202,0.266972,-0.117431,-0.072419,0.204347,1.127134,-304.489962,132.704336,332.493349,
187,-0.326606,0.304587,-0.115596,-0.088378,0.16266,1.159805,-290.201795,127.794746,335.388749,
188,-0.326606,0.304587,-0.115596,-0.092102,0.075278,1.198637,-268.360412,122.885156,332.745123,
189,-0.326606,0.304587,-0.115596,-0.112584,-0.039093,1.214169,-244.190122,117.472018,323.807151,
190,-0.304587,0.347706,-0.113761,-0.152749,-0.182057,1.196762,-226.314178,109.855858,306.371811,
191,-0.304587,0.347706,-0.113761,-0.165516,-0.36163,1.144809,-215.865562,99.281356,280.439103,
192,-0.304587,0.347706,-0.113761,-0.147429,-0.578347,1.094998,-205.857551,86.881493,245.001933,
193,-0.277064,0.387156,-0.109174,-0.129075,-0.772618,1.007694,-191.695272,73.411592,198.360825,
194,-0.277064,0.387156,-0.109174,-0.083058,-0.934287,0.917178,-169.035624,58.682821,143.159406,
195,-0.258716,0.417431,-0.100917,-0.030924,-1.074579,0.811396,-129.381241,41.121594,82.481905,
196,-0.258716,0.417431,-0.100917,0.002858,-1.148332,0.717398,-76.382843,20.602024,15.824775,
197,-0.258716,0.417431,-0.100917,0.000996,-1.168909,0.59421,-13.754095,-2.246454,-53.916584,
198,-0.242202,0.43578,-0.089908,-0.030126,-1.100232,0.513601,55.798434,-28.179161,-122.336131,
199,-0.242202,0.43578,-0.089908,-0.060449,-0.98212,0.512798,126.295115,-58.140251,-185.53137,
200,-0.242202,0.43578,-0.089908,-0.097954,-0.825795,0.530473,190.749224,-94.521574,-242.369319,
201,-0.243119,0.438532,-0.093578,-0.150355,-0.681228,0.638665,243.369961,-128.511045,-294.486509,
202,-0.243119,0.438532,-0.093578,-0.116308,-0.535057,0.774975,285.038535,-148.275293,-333.259683,
203,-0.256881,0.422936,-0.094495,-0.143173,-0.401179,0.898967,315.440228,-166.151237,-355.604614,
204,-0.256881,0.422936,-0.094495,-0.172166,-0.277989,0.991359,335.582137,-179.369365,-367.312098,
205,-0.256881,0.422936,-0.094495,-0.195574,-0.164687,1.068218,345.841922,-186.73375,-370.018667,
206,-0.286239,0.383486,-0.10367,-0.228291,-0.071961,1.118296,347.100791,-186.670807,-365.109077,
207,-0.286239,0.383486,-0.10367,-0.275372,-0.023059,1.146148,338.855198,-185.348994,-354.660462,
208,-0.313761,0.33945,-0.109174,-0.293725,0.028247,1.181497,323.371105,-182.516538,-341.442334,
209,-0.313761,0.33945,-0.109174,-0.297981,0.06459,1.219257,302.662705,-177.418118,-322.874012,
210,-0.313761,0.33945,-0.109174,-0.295055,0.11269,1.273889,281.387814,-168.731919,-300.780855,
211,-0.33945,0.294495,-0.108257,-0.26952,0.190451,1.342446,263.260096,-154.254922,-275.288752,
212,-0.33945,0.294495,-0.108257,-0.233611,0.302685,1.434034,249.034872,-133.483579,-242.74698,
213,-0.33945,0.294495,-0.108257,-0.174028,0.420797,1.500984,237.705049,-107.550871,-202.714936,
214,-0.357798,0.249541,-0.104587,-0.141311,0.529556,1.546778,223.290995,-77.463895,-155.38145,
215,-0.357798,0.249541,-0.104587,-0.142375,0.637247,1.556151,197.04357,-44.292688,-103.956639,
216,-0.375229,0.211927,-0.098165,-0.159665,0.71394,1.556151,153.612579,-8.666687,-49.951146,
217,-0.375229,0.211927,-0.098165,-0.188126,0.757497,1.513571,95.1381,23.560367,1.536609,
218,-0.375229,0.211927,-0.098165,-0.209671,0.756161,1.454922,19.165337,52.010814,50.191907,
219,-0.379817,0.190826,-0.094495,-0.212597,0.735318,1.409396,-64.423585,78.384126,94.441163,
220,-0.379817,0.190826,-0.094495,-0.147695,0.669314,1.386633,-141.655217,103.246794,136.990946,
221,-0.379817,0.190826,-0.094495,-0.132799,0.557882,1.340839,-200.5703,126.347046,177.274764,
222,-0.376147,0.187156,-0.098165,-0.145567,0.459544,1.27737,-237.832832,143.404725,213.152539,
223,-0.376147,0.187156,-0.098165,-0.150355,0.361206,1.213901,-261.436631,152.594471,244.057781,
224,-0.366972,0.204587,-0.102752,-0.145035,0.282109,1.160609,-275.598911,156.93757,271.060527,
225,-0.366972,0.204587,-0.102752,-0.129341,0.209691,1.1191,-282.082088,159.958857,293.27957,
226,-0.366972,0.204587,-0.102752,-0.130937,0.151437,1.098747,-283.089183,161.532443,309.959589,
227,-0.355046,0.243119,-0.111009,-0.125085,0.104673,1.095801,-279.312575,160.965952,322.925943,
228,-0.355046,0.243119,-0.111009,-0.11817,0.071537,1.095265,-270.689321,157.567005,332.556293,
229,-0.333945,0.284404,-0.114679,-0.113116,0.045617,1.090981,-258.793006,152.405641,337.59177,
230,-0.333945,0.284404,-0.114679,-0.107796,0.029583,1.086696,-243.875404,147.055446,338.284148,
231,-0.333945,0.284404,-0.114679,-0.103274,-0.000613,1.077858,-226.125347,139.816948,333.752219,
232,-0.311927,0.321101,-0.118349,-0.097156,-0.048713,1.057773,-206.235212,131.634297,326.32489,
233,-0.311927,0.321101,-0.118349,-0.101678,-0.129681,1.046258,-184.708547,124.081081,314.113857,
234,-0.311927,0.321101,-0.118349,-0.125351,-0.257413,1.044115,-166.391999,115.268996,294.349609,
235,-0.289908,0.36422,-0.114679,-0.163389,-0.421221,1.004213,-157.579913,103.498568,265.521502,
236,-0.289908,0.36422,-0.114679,-0.172166,-0.5877,0.964846,-154.43274,90.783988,230.210218,
237,-0.265138,0.390826,-0.109174,-0.137055,-0.764868,0.919052,-147.005411,78.258239,190.241118,
238,-0.265138,0.390826,-0.109174,-0.099816,-0.899549,0.851834,-130.325393,65.480715,144.921823,
239,-0.265138,0.390826,-0.109174,-0.084388,-0.997619,0.76828,-104.455629,48.48598,96.140637,
240,-0.244037,0.416514,-0.108257,-0.046085,-1.047857,0.709364,-68.263136,30.547092,42.512805,
241,-0.244037,0.416514,-0.108257,-0.034648,-1.046254,0.649109,-22.125576,11.223448,-12.24801,
242,-0.244037,0.416514,-0.108257,-0.034914,-0.996283,0.602779,30.746935,-12.820956,-66.316447,
243,-0.233028,0.431193,-0.104587,-0.039169,-0.916651,0.578409,83.241785,-39.131324,-117.615371,
244,-0.233028,0.431193,-0.104587,-0.050075,-0.795332,0.599566,126.169228,-64.245767,-164.885914,
245,-0.233028,0.430275,-0.101835,-0.051405,-0.66279,0.677764,158.585113,-84.765337,-205.232675,
246,-0.233028,0.430275,-0.101835,-0.054863,-0.54441,0.736144,184.895481,-103.71132,-237.585616,
247,-0.233028,0.430275,-0.101835,-0.071621,-0.444736,0.81943,206.67392,-119.006582,-261.567076,
248,-0.244954,0.417431,-0.106422,-0.097688,-0.349605,0.886916,223.668656,-131.280557,-277.995321,
249,-0.244954,0.417431,-0.106422,-0.113116,-0.261154,0.951992,236.446179,-141.162682,-287.940388,
250,-0.266972,0.393578,-0.108257,-0.133065,-0.189004,1.017871,245.258265,-146.827593,-292.849979,
251,-0.266972,0.393578,-0.108257,-0.163389,-0.134224,1.058041,248.971929,-149.408275,-294.108848,
252,-0.266972,0.393578,-0.108257,-0.187328,-0.093606,1.091248,247.209512,-149.282389,-292.283487,
253,-0.288991,0.356881,-0.114679,-0.211799,-0.075702,1.132222,241.733431,-146.386989,-287.751558,
254,-0.288991,0.356881,-0.114679,-0.242921,-0.069289,1.147754,231.977193,-142.421551,-281.583098,
255,-0.288991,0.356881,-0.114679,-0.262338,-0.061272,1.165162,219.262613,-137.700791,-273.463391,
256,-0.312844,0.322018,-0.116514,-0.259944,-0.036688,1.164358,205.666825,-132.161766,-263.329493,
257,-0.312844,0.322018,-0.116514,-0.263136,0.002327,1.157127,192.889301,-125.552702,-252.125557,
258,-0.331193,0.286239,-0.114679,-0.257284,0.046686,1.200243,179.797061,-116.80356,-239.725694,
259,-0.331193,0.286239,-0.114679,-0.236803,0.110552,1.223542,168.026633,-106.543776,-223.863941,
260,-0.331193,0.286239,-0.114679,-0.216587,0.177892,1.238807,156.885639,-96.158104,-205.610336,
261,-0.347706,0.255963,-0.111009,-0.181742,0.272489,1.276031,146.437024,-82.814089,-182.573027,
262,-0.347706,0.255963,-0.111009,-0.157803,0.348914,1.322361,134.540709,-69.155357,-155.633224,
263,-0.347706,0.255963,-0.111009,-0.122426,0.41572,1.336822,120.252542,-52.601226,-126.112739,
264,-0.356881,0.226606,-0.109174,-0.103274,0.471302,1.360924,99.040595,-34.15879,-94.074515,
265,-0.356881,0.226606,-0.109174,-0.089442,0.525548,1.371904,71.974905,-14.457486,-59.266779,
266,-0.365138,0.207339,-0.104587,-0.070025,0.538107,1.392525,40.629059,5.684423,-23.451947,
267,-0.365138,0.207339,-0.104587,-0.054597,0.51673,1.355836,4.814227,24.945123,11.355789,
268,-0.365138,0.207339,-0.104587,-0.058587,0.45901,1.318612,-37.798499,45.212919,42.386918,
269,-0.366055,0.193578,-0.102752,-0.058853,0.4061,1.295313,-80.285338,63.466524,71.655629,
270,-0.366055,0.193578,-0.102752,-0.046085,0.328872,1.238539,-109.616993,76.810539,100.043132,
271,-0.36789,0.194495,-0.107339,-0.038106,0.246301,1.198637,-127.744711,89.084515,126.3535,
272,-0.36789,0.194495,-0.107339,-0.040765,0.202743,1.163019,-139.515139,99.407243,148.32077,
273,-0.36789,0.194495,-0.107339,-0.036244,0.16079,1.13731,-148.390168,106.960459,167.833244,
274,-0.357798,0.210092,-0.109174,-0.039967,0.135403,1.127134,-154.369797,113.065975,184.009715,
275,-0.357798,0.210092,-0.109174,-0.031988,0.118301,1.114011,-157.139309,118.290283,198.297881,
276,-0.357798,0.210092,-0.109174,-0.027998,0.106009,1.105442,-157.013422,121.752173,210.697744,
277,-0.351376,0.233945,-0.116514,-0.029594,0.097191,1.114011,-155.251005,124.647573,221.52402,
278,-0.351376,0.233945,-0.116514,-0.048745,0.078218,1.115351,-155.376892,126.40999,229.70667,
279,-0.337615,0.258716,-0.118349,-0.048213,0.053099,1.116957,-157.957574,127.354142,235.87513,
280,-0.337615,0.258716,-0.118349,-0.052203,0.034393,1.099015,-160.727087,127.668859,240.029399,
281,-0.337615,0.258716,-0.118349,-0.048213,0.004732,1.093926,-162.552447,126.78765,242.547137,
282,-0.323853,0.286239,-0.122018,-0.042095,-0.035619,1.067682,-160.915917,125.15112,241.728872,
283,-0.323853,0.286239,-0.122018,-0.043957,-0.078642,1.048668,-156.950479,122.822212,239.337021,
284,-0.323853,0.286239,-0.122018,-0.036776,-0.134224,1.033671,-149.145489,118.353226,233.986826,
285,-0.307339,0.312844,-0.124771,-0.027732,-0.182591,1.009569,-137.375061,112.688314,226.685384,
286,-0.307339,0.312844,-0.124771,-0.01257,-0.237906,0.98627,-121.639195,107.967554,217.999186,
287,-0.288991,0.338532,-0.126606,-0.013368,-0.271843,0.9461,-106.910424,102.176755,206.228758,
288,-0.288991,0.338532,-0.126606,-0.014698,-0.298566,0.913161,-93.440522,95.064144,193.073574,
289,-0.288991,0.338532,-0.126606,-0.014166,-0.319142,0.888791,-83.684285,85.811454,176.960046,
290,-0.268807,0.36055,-0.124771,0.006581,-0.342924,0.867099,-73.739218,77.251143,159.713537,
291,-0.268807,0.36055,-0.124771,0.020945,-0.359492,0.862278,-64.738302,67.809623,141.459932,
292,-0.252294,0.378899,-0.124771,0.039565,-0.370716,0.84621,-54.982065,58.11633,122.325119,
293,-0.252294,0.378899,-0.124771,0.048874,-0.378198,0.842461,-45.477602,49.115414,103.442079,
294,-0.252294,0.378899,-0.124771,0.057918,-0.379801,0.828536,-35.658421,40.051555,84.74787,
295,-0.241284,0.387156,-0.125688,0.063504,-0.381672,0.822912,-25.46158,29.665883,65.801887,
296,-0.241284,0.387156,-0.125688,0.071484,-0.377663,0.80845,-15.075908,20.664968,46.981791,
297,-0.241284,0.387156,-0.125688,0.080262,-0.384077,0.802023,-5.697332,10.971674,28.413468,
298,-0.231193,0.395413,-0.124771,0.080528,-0.378999,0.804166,2.548262,1.844872,10.852242,
299,-0.231193,0.395413,-0.124771,0.066696,-0.355484,0.799077,9.534987,-7.281931,-6.394268,
300,-0.229358,0.398165,-0.122936,0.084252,-0.33277,0.799613,18.032355,-16.219903,-22.067191,
301,-0.229358,0.398165,-0.122936,0.099147,-0.310591,0.816484,29.299235,-24.591384,-35.788866,
302,-0.229358,0.398165,-0.122936,0.081592,-0.28467,0.819698,40.377285,-31.578108,-49.069937,
303,-0.227523,0.397248,-0.123853,0.0651,-0.267033,0.846746,47.993444,-38.50189,-61.029196,
304,-0.227523,0.397248,-0.123853,0.044619,-0.236837,0.863082,51.644165,-44.670349,-71.603698,
305,-0.227523,0.397248,-0.123853,0.041959,-0.203434,0.881292,53.532469,-50.775865,-79.975179,
306,-0.23211,0.393578,-0.124771,0.048874,-0.177514,0.908608,56.99436,-55.496625,-87.150734,
307,-0.23211,0.393578,-0.124771,0.045948,-0.14518,0.919588,61.526289,-58.140251,-93.382137,
308,-0.23211,0.393578,-0.124771,0.033181,-0.110975,0.95226,66.372936,-60.028555,-98.039954,
309,-0.23211,0.393578,-0.124771,0.022275,-0.080779,0.969399,71.219583,-61.665085,-101.25007,
310,-0.23211,0.393578,-0.124771,0.016689,-0.052721,1.001803,74.492643,-62.420406,-102.50894,
311,-0.248624,0.377982,-0.12844,0.014295,-0.034817,1.020549,74.996191,-63.112785,-102.823657,
312,-0.248624,0.377982,-0.12844,0.008443,-0.009965,1.027512,74.4297,-62.294519,-101.753618,
313,-0.258716,0.36789,-0.127523,0.004453,0.01355,1.035814,72.919057,-61.476254,-99.991201,
314,-0.258716,0.36789,-0.127523,0.009241,0.018627,1.044919,71.156639,-60.406216,-97.032858,
315,-0.258716,0.36789,-0.127523,0.00206,0.036798,1.047597,69.016562,-58.140251,-93.948628,
316,-0.266972,0.354128,-0.12844,0.004985,0.043212,1.060451,65.302897,-55.244851,-90.612625,
317,-0.266972,0.354128,-0.12844,0.00339,0.044815,1.055095,61.085685,-53.482434,-86.521299,
318,-0.266972,0.354128,-0.12844,0.002592,0.053633,1.061522,57.434964,-50.712922,-82.1782,
319,-0.276147,0.345872,-0.127523,-0.002462,0.063521,1.073306,53.091865,-48.446957,-77.394497,
320,-0.276147,0.345872,-0.127523,0.013497,0.061917,1.08616,48.874653,-45.488614,-72.421963,
321,-0.283486,0.336697,-0.129358,0.007911,0.067796,1.096604,44.720384,-42.278497,-67.071769,
322,-0.283486,0.336697,-0.129358,0.015891,0.073675,1.104103,40.880833,-38.250116,-61.092139,
323,-0.283486,0.336697,-0.129358,0.020413,0.08089,1.105174,37.293055,-35.039999,-55.049567,
324,-0.292661,0.32844,-0.12844,0.024137,0.078218,1.113476,34.586486,-30.6969,-48.503446,
325,-0.292661,0.32844,-0.12844,0.025467,0.07127,1.100354,31.691087,-26.605575,-41.516722,
326,-0.292661,0.32844,-0.12844,0.019349,0.082493,1.100621,28.48097,-22.640136,-34.844714,
327,-0.295413,0.322018,-0.127523,0.023339,0.072339,1.091516,24.326701,-19.052359,-28.424481,
328,-0.295413,0.322018,-0.127523,0.024137,0.071537,1.103299,19.731828,-14.457486,-21.5007,
329,-0.295413,0.322018,-0.127523,0.022541,0.065926,1.093659,14.066916,-10.240274,-14.388088,
330,-0.295413,0.322018,-0.127523,0.030787,0.076882,1.098747,8.464948,-6.337779,-7.590194,
331,-0.295413,0.322018,-0.127523,0.041693,0.066193,1.105442,4.121849,-2.624114,-0.603469,
332,-0.301835,0.311927,-0.127523,0.036639,0.079821,1.108388,2.86298,1.781928,7.01269,
333,-0.301835,0.311927,-0.127523,0.041959,0.092381,1.102496,2.422375,7.25801,15.321228,
334,-0.302752,0.315596,-0.127523,0.047278,0.149566,1.128473,1.163506,12.671148,24.196256,
335,-0.302752,0.315596,-0.127523,0.066696,0.208622,1.18123,3.618301,19.97259,38.043819,
336,-0.302752,0.315596,-0.127523,0.07707,0.283177,1.215776,10.919743,29.854714,56.612141,
337,-0.3,0.312844,-0.126606,0.08106,0.353457,1.261034,19.605941,40.743933,78.138806,
338,-0.3,0.312844,-0.126606,0.056056,0.421331,1.304418,19.983602,54.84327,101.679662,
339,-0.3,0.312844,-0.126606,0.024137,0.44458,1.328788,5.884266,73.033931,125.220518,
340,-0.298165,0.316514,-0.129358,-0.016028,0.43496,1.336019,-22.125576,89.525119,149.013148,
341,-0.298165,0.316514,-0.129358,-0.051405,0.4061,1.31272,-61.024638,105.449816,172.30223,
342,-0.289908,0.321101,-0.131193,-0.062045,0.345707,1.273353,-103.38559,118.542056,192.066478,
343,-0.289908,0.321101,-0.131193,-0.065503,0.261532,1.251393,-140.270461,131.004863,209.312988,
344,-0.289908,0.321101,-0.131193,-0.054331,0.158385,1.204528,-162.42656,140.194608,223.601154,
345,-0.277982,0.334862,-0.133945,-0.062577,0.079554,1.167572,-170.609211,144.978312,235.245695,
346,-0.277982,0.334862,-0.133945,-0.043425,0.038669,1.103567,-171.112759,148.629033,243.931894,
347,-0.277982,0.334862,-0.133945,-0.034116,0.000189,1.074109,-169.035624,148.440202,249.722692,
348,-0.255046,0.353211,-0.13578,-0.021614,-0.054057,1.054827,-163.370712,148.629033,252.492205,
349,-0.255046,0.353211,-0.13578,-0.017624,-0.093606,1.018942,-156.887535,146.803672,252.932809,
350,-0.255046,0.353211,-0.13578,-0.008048,-0.128612,0.978236,-150.907906,142.460573,251.296279,
351,-0.255046,0.353211,-0.13578,0.004985,-0.158274,0.964311,-144.047068,136.292114,247.519671,
352,-0.255046,0.353211,-0.13578,0.029723,-0.198357,0.925747,-134.416718,128.613011,240.721777,
353,-0.210092,0.402752,-0.13211,0.056588,-0.224812,0.895486,-122.64629,121.185682,231.15437,
354,-0.210092,0.402752,-0.13211,0.060046,-0.262223,0.862546,-108.987558,113.569523,219.950433,
355,-0.184404,0.420183,-0.124771,0.068026,-0.297764,0.844871,-95.077052,104.757438,206.606419,
356,-0.184404,0.420183,-0.124771,0.076006,-0.334641,0.825858,-83.306624,95.252974,190.870552,
357,-0.184404,0.420183,-0.124771,0.08106,-0.367776,0.800952,-72.983896,86.000285,173.120495,
358,-0.163303,0.441284,-0.124771,0.084518,-0.411868,0.794793,-65.304793,75.866387,154.363342,
359,-0.163303,0.441284,-0.124771,0.091167,-0.473329,0.766941,-58.255125,65.228941,133.340225,
360,-0.163303,0.441284,-0.124771,0.095157,-0.543608,0.758639,-53.534365,53.773231,108.036952,
361,-0.144037,0.445872,-0.118349,0.086114,-0.623775,0.738822,-53.408478,41.499255,79.020014,
362,-0.144037,0.445872,-0.118349,0.093561,-0.722113,0.709632,-54.226743,29.41411,46.541186,
363,-0.131193,0.455963,-0.115596,0.094625,-0.802547,0.670533,-51.897835,17.140134,10.348694,
364,-0.131193,0.455963,-0.115596,0.107925,-0.873628,0.640807,-41.44922,2.222532,-29.49452,
365,-0.131193,0.455963,-0.115596,0.107659,-0.949786,0.603315,-25.020976,-14.520429,-73.680832,
366,-0.123853,0.462385,-0.114679,0.070952,-0.976241,0.603315,-5.634388,-32.081656,-121.58081,
367,-0.123853,0.462385,-0.114679,0.060578,-0.981853,0.602511,18.284129,-52.412395,-171.746751,
368,-0.129358,0.466055,-0.111009,0.04914,-0.946847,0.594745,50.196466,-75.827365,-222.227411,
369,-0.129358,0.466055,-0.111009,0.032915,-0.884317,0.6076,91.990927,-99.305277,-268.994405,
370,-0.129358,0.466055,-0.111009,-0.002728,-0.773954,0.604654,139.261469,-123.664398,-312.110679,
371,-0.145872,0.459633,-0.111009,-0.057789,-0.644351,0.638397,186.469068,-149.597106,-350.506193,
372,-0.145872,0.459633,-0.111009,-0.116308,-0.504594,0.697581,224.612808,-173.704453,-382.229699,
373,-0.145872,0.459633,-0.111009,-0.153547,-0.378999,0.782474,254.25918,-194.098136,-407.973577,
374,-0.16789,0.43945,-0.119266,-0.206214,-0.276119,0.871919,277.485319,-212.603515,-424.590652,
375,-0.16789,0.43945,-0.119266,-0.233877,-0.168963,0.973416,295.046546,-226.576964,-431.073829,
376,-0.206422,0.412844,-0.127523,-0.254624,-0.057531,1.051078,307.194634,-237.466183,-429.626129,
377,-0.206422,0.412844,-0.127523,-0.275372,0.049625,1.133025,313.677811,-245.082343,-422.765291,
378,-0.206422,0.412844,-0.127523,-0.285214,0.164263,1.206938,314.621963,-245.271173,-410.365428,
379,-0.244037,0.373394,-0.133028,-0.282288,0.25886,1.293706,311.537734,-240.298639,-390.852954,
380,-0.244037,0.373394,-0.133028,-0.234143,0.360405,1.406718,306.313426,-230.85712,-364.290812,
381,-0.244037,0.373394,-0.133028,-0.20515,0.487602,1.524551,301.592666,-212.918232,-329.420132,
382,-0.280734,0.324771,-0.134862,-0.159133,0.625489,1.654434,297.060737,-187.363185,-287.05918,
383,-0.280734,0.324771,-0.134862,-0.097954,0.775401,1.798511,292.780581,-153.12194,-232.738969,
384,-0.311927,0.281651,-0.130275,-0.047947,0.937338,1.974456,286.549178,-107.487928,-167.151878,
385,-0.311927,0.281651,-0.130275,0.002592,1.030598,2.105947,273.393994,-51.342356,-93.25625,
386,-0.311927,0.281651,-0.130275,-0.0272,1.058924,2.134066,235.753801,14.370621,-21.563643,
387,-0.32844,0.241284,-0.127523,-0.20249,1.071216,2.365446,169.851993,77.37703,41.757483,
388,-0.32844,0.241284,-0.127523,-0.25356,1.125195,1.78646,76.25506,113.380692,92.426973,
389,-0.334862,0.217431,-0.129358,-0.301173,0.881488,1.72192,-74.8722,146.048351,139.131024,
390,-0.334862,0.217431,-0.129358,-0.190786,0.750816,1.746825,-220.460435,197.850823,183.883828,
391,-0.334862,0.217431,-0.129358,-0.166846,0.616671,1.752182,-334.639881,241.596531,225.300628,
392,-0.322018,0.213761,-0.13578,-0.194776,0.470233,1.58427,-409.290831,260.857232,263.570255,
393,-0.322018,0.213761,-0.13578,-0.211533,0.332346,1.380741,-458.072017,263.123196,299.888634,
394,-0.322018,0.213761,-0.13578,-0.168442,0.192055,1.22381,-484.130612,260.542514,329.031459,
395,-0.3,0.250459,-0.144954,-0.118436,0.059512,1.070092,-488.977258,255.695867,351.816993,
396,-0.3,0.250459,-0.144954,-0.105136,-0.058065,1.021888,-482.808799,251.100994,369.000559,
397,-0.275229,0.304587,-0.149541,-0.065237,-0.115518,1.025905,-460.526812,241.03004,380.833931,
398,-0.275229,0.304587,-0.149541,-0.030126,-0.14999,1.00582,-430.313949,224.475909,385.491747,
399,-0.275229,0.304587,-0.149541,0.010571,-0.178048,0.999393,-393.240248,207.040569,381.652196,
400,-0.240367,0.36422,-0.138532,0.045417,-0.221873,0.982253,-350.879296,190.045833,370.637089,
401,-0.240367,0.36422,-0.138532,0.07441,-0.285204,0.978236,-306.063548,172.106945,352.572315,
402,-0.240367,0.36422,-0.138532,0.112447,-0.354949,0.937263,-264.1432,152.405641,327.206098,
403,-0.201835,0.410092,-0.130275,0.128141,-0.442331,0.88772,-229.901955,131.760184,294.601383,
404,-0.201835,0.410092,-0.130275,0.165114,-0.538531,0.818091,-201.703283,109.100537,255.387604,
405,-0.168807,0.446789,-0.117431,0.22177,-0.632326,0.731324,-173.31578,85.559681,210.6348,
406,-0.168807,0.446789,-0.117431,0.247572,-0.75124,0.652322,-148.641941,64.410676,162.294219,
407,-0.168807,0.446789,-0.117431,0.309282,-0.772618,0.620454,-106.155102,40.429216,107.911065,
408,-0.142202,0.47156,-0.104587,0.305824,-0.801478,0.542256,-59.765768,9.08337,50.191907,
409,-0.142202,0.47156,-0.104587,0.315932,-0.823657,0.449061,-4.501406,-22.136589,-9.667328,
410,-0.126606,0.483486,-0.097248,0.308218,-0.84076,0.382111,55.294886,-53.860095,-69.967168,
411,-0.126606,0.483486,-0.097248,0.281619,-0.811098,0.389074,115.217065,-83.065863,-125.294474,
412,-0.126606,0.483486,-0.097248,0.245976,-0.727725,0.450936,165.634781,-111.327479,-170.865543,
413,-0.131193,0.484404,-0.091743,0.221238,-0.649963,0.53931,202.897312,-137.32313,-209.072226,
414,-0.131193,0.484404,-0.091743,0.185063,-0.57621,0.605725,225.55696,-158.03153,-239.977468,
415,-0.131193,0.484404,-0.091743,0.140908,-0.515283,0.673746,238.963918,-176.222192,-263.958928,
416,-0.144037,0.472477,-0.102752,0.08239,-0.453287,0.725432,246.894795,-190.699189,-280.638946,
417,-0.144037,0.472477,-0.102752,0.027329,-0.408661,0.771494,250.041968,-201.903126,-291.150505,
418,-0.172477,0.448624,-0.111009,-0.01523,-0.360561,0.81461,251.678498,-209.582228,-297.004247,
419,-0.172477,0.448624,-0.111009,-0.064173,-0.329296,0.861743,249.097816,-213.925327,-299.584929,
420,-0.172477,0.448624,-0.111009,-0.113914,-0.291083,0.902181,243.999395,-216.50601,-300.403195,
421,-0.207339,0.418349,-0.121101,-0.153547,-0.255543,0.968328,238.397427,-215.876575,-299.270212,
422,-0.207339,0.418349,-0.121101,-0.18121,-0.229622,1.063129,233.173119,-213.170006,-296.123039,
423,-0.207339,0.418349,-0.121101,-0.213661,-0.191677,1.148826,231.033041,-207.945698,-289.639862,
424,-0.237615,0.387156,-0.12844,-0.241325,-0.137163,1.193548,231.410702,-201.336634,-281.646042,
425,-0.237615,0.387156,-0.12844,-0.2509,-0.086391,1.269872,234.369045,-191.706284,-271.638031,
426,-0.268807,0.353211,-0.13211,-0.255688,-0.029473,1.336286,237.705049,-181.131782,-258.105186,
427,-0.268807,0.353211,-0.13211,-0.251166,0.05016,1.379135,241.166939,-168.480145,-240.669846,
428,-0.268807,0.353211,-0.13211,-0.226429,0.146627,1.417162,243.558791,-153.247827,-218.010198,
429,-0.295413,0.320183,-0.129358,-0.211001,0.242827,1.456797,242.488752,-134.931278,-190.881565,
430,-0.295413,0.320183,-0.129358,-0.197968,0.339561,1.491343,234.746706,-114.096991,-160.605758,
431,-0.314679,0.286239,-0.124771,-0.190254,0.42721,1.517052,218.318461,-89.989644,-126.616287,
432,-0.314679,0.286239,-0.124771,-0.185998,0.50417,1.541958,189.930959,-64.434597,-90.675568,
433,-0.314679,0.286239,-0.124771,-0.176688,0.568304,1.549188,151.976049,-37.998342,-55.490171,
434,-0.32844,0.26055,-0.123853,-0.154611,0.597965,1.560168,105.146111,-9.359065,-18.920018,
435,-0.32844,0.26055,-0.123853,-0.137853,0.581398,1.523212,52.588317,19.406099,15.950662,
436,-0.32844,0.26055,-0.123853,-0.143971,0.562692,1.481435,-6.515597,47.352997,47.485338,
437,-0.334862,0.241284,-0.123853,-0.124553,0.56964,1.488397,-66.374832,74.229857,78.453523,
438,-0.334862,0.241284,-0.123853,-0.060981,0.537039,1.486791,-111.631184,100.477282,112.317108,
439,-0.331193,0.238532,-0.129358,-0.041829,0.483861,1.467777,-139.137478,126.284103,147.502505,
440,-0.331193,0.238532,-0.129358,-0.075877,0.430417,1.402165,-158.901726,150.454393,181.429033,
441,-0.331193,0.238532,-0.129358,-0.125351,0.382317,1.374582,-178.791861,170.092755,211.956613,
442,-0.324771,0.253211,-0.130275,-0.161261,0.337156,1.335215,-202.773322,183.499713,237.071056,
443,-0.324771,0.253211,-0.130275,-0.162591,0.266877,1.309238,-228.957803,194.451876,258.849495,
444,-0.324771,0.253211,-0.130275,-0.16791,0.204347,1.281119,-253.316924,202.69747,277.040156,
445,-0.30367,0.277982,-0.136697,-0.158867,0.134602,1.24577,-272.955285,207.79589,292.587192,
446,-0.30367,0.277982,-0.136697,-0.159399,0.072072,1.23238,-285.543978,210.313629,304.609394,
447,-0.281651,0.308257,-0.140367,-0.157005,0.017291,1.199976,-288.628208,208.047664,310.840797,
448,-0.281651,0.308257,-0.140367,-0.143971,-0.048713,1.165429,-284.536883,203.704565,312.477327,
449,-0.281651,0.308257,-0.140367,-0.122691,-0.126742,1.130615,-274.214155,198.669088,310.651967,
450,-0.255963,0.348624,-0.13945,-0.108594,-0.193814,1.098479,-257.78591,191.430589,305.553546,
451,-0.255963,0.348624,-0.13945,-0.08625,-0.250466,1.067414,-237.07751,182.1779,296.867348,
452,-0.223853,0.383486,-0.136697,-0.053267,-0.295893,1.029386,-213.158993,172.610493,286.292846,
453,-0.223853,0.383486,-0.136697,-0.020816,-0.343192,0.993233,-188.170438,160.273574,271.186414,
454,-0.223853,0.383486,-0.136697,-0.004324,-0.394766,0.952527,-164.06309,147.370164,251.988657,
455,-0.194495,0.416514,-0.130275,0.028925,-0.445271,0.908072,-143.039973,133.270827,228.07014,
456,-0.194495,0.416514,-0.130275,0.057386,-0.490966,0.840051,-124.660481,118.542056,201.319168,
457,-0.194495,0.416514,-0.130275,0.093029,-0.555099,0.775243,-107.602802,101.987925,171.106304,
458,-0.166055,0.43945,-0.122936,0.118565,-0.602932,0.729985,-90.545123,84.741416,138.942193,
459,-0.166055,0.43945,-0.122936,0.15607,-0.642748,0.682048,-72.543292,66.11015,104.512118,
460,-0.144037,0.454128,-0.116514,0.187191,-0.66947,0.632237,-52.086666,46.408845,69.263777,
461,-0.144037,0.454128,-0.116514,0.209801,-0.692451,0.594745,-27.538714,25.889275,32.378907,
462,-0.144037,0.454128,-0.116514,0.226026,-0.694055,0.556717,-1.794837,5.306762,-4.505964,
463,-0.133028,0.462385,-0.114679,0.228952,-0.681762,0.5369,26.152062,-14.583373,-39.439587,
464,-0.133028,0.462385,-0.114679,0.226824,-0.659583,0.532883,54.036017,-36.047094,-73.114341,
465,-0.133028,0.462385,-0.114679,0.201289,-0.628852,0.550558,78.332195,-56.189003,-104.586074,
466,-0.129358,0.461468,-0.111927,0.175487,-0.591708,0.576267,96.585799,-74.757326,-133.854785,
467,-0.129358,0.461468,-0.111927,0.155804,-0.539333,0.621793,109.929814,-92.381496,-160.165154,
468,-0.134862,0.457798,-0.114679,0.139844,-0.490966,0.674818,121.070807,-107.362041,-181.943593,
469,-0.134862,0.457798,-0.114679,0.116437,-0.441529,0.717398,130.889988,-118.943638,-200.386028,
470,-0.134862,0.457798,-0.114679,0.089837,-0.383008,0.769887,139.82796,-128.825762,-215.618347,
471,-0.154128,0.447706,-0.120183,0.048608,-0.341321,0.829071,147.255289,-136.882526,-227.703492,
472,-0.154128,0.447706,-0.120183,0.022009,-0.300169,0.878347,154.053183,-143.428646,-237.585616,
473,-0.173394,0.43211,-0.123853,-0.013634,-0.273714,0.918517,161.354625,-147.519972,-245.453549,
474,-0.173394,0.43211,-0.123853,-0.044489,-0.241914,0.968595,165.383007,-149.722993,-250.174309,
475,-0.173394,0.43211,-0.123853,-0.071887,-0.203434,0.997786,166.390103,-150.604201,-252.817935,
476,-0.2,0.411009,-0.131193,-0.096092,-0.170833,1.037956,164.124138,-151.170692,-253.069709,
477,-0.2,0.411009,-0.131193,-0.110456,-0.123802,1.041705,159.025717,-149.156502,-251.496122,
478,-0.2,0.411009,-0.131193,-0.132267,-0.063143,1.087499,153.738466,-146.638763,-249.481931,
479,-0.224771,0.387156,-0.133945,-0.132001,-0.000613,1.112405,149.143593,-143.49159,-245.957097,
480,-0.224771,0.387156,-0.133945,-0.122691,0.057642,1.163019,146.311137,-138.141395,-239.66275,
481,-0.248624,0.36422,-0.134862,-0.122957,0.114827,1.211759,143.919285,-131.847049,-231.66893,
482,-0.248624,0.36422,-0.134862,-0.115776,0.168539,1.26157,140.520338,-123.979115,-220.087333,
483,-0.248624,0.36422,-0.134862,-0.113382,0.232405,1.303615,135.925465,-114.78937,-205.987997,
484,-0.269725,0.338532,-0.134862,-0.093166,0.270885,1.310578,129.819949,-104.08898,-189.811526,
485,-0.269725,0.338532,-0.134862,-0.078271,0.319252,1.349676,121.259638,-91.437344,-170.865543,
486,-0.269725,0.338532,-0.134862,-0.053799,0.365482,1.369226,110.181588,-77.02329,-149.779482,
487,-0.288991,0.319266,-0.136697,-0.028264,0.407169,1.385294,97.089347,-61.665085,-126.364513,
488,-0.288991,0.319266,-0.136697,-0.010974,0.452596,1.382616,83.052954,-45.110953,-100.935353,
489,-0.299083,0.29633,-0.133028,0.016955,0.493749,1.399755,68.198297,-27.046179,-72.988454,
490,-0.299083,0.29633,-0.133028,0.040629,0.529022,1.417966,53.7213,-6.526609,-42.712647,
491,-0.299083,0.29633,-0.133028,0.04914,0.565631,1.416895,36.726564,15.000056,-8.97495,
492,-0.306422,0.285321,-0.131193,0.052864,0.595026,1.420912,16.710542,37.219099,24.2592,
493,-0.306422,0.285321,-0.131193,0.052332,0.6148,1.427874,-6.767371,60.571125,59.192823,
494,-0.309174,0.278899,-0.133945,0.039565,0.617473,1.419573,-34.714269,83.54549,94.126446,
495,-0.309174,0.278899,-0.133945,0.009773,0.583803,1.391989,-70.780875,106.142194,127.234709,
496,-0.309174,0.278899,-0.133945,-0.021082,0.534099,1.378331,-115.030131,126.347046,156.188703,
497,-0.30367,0.282569,-0.138532,-0.030392,0.44939,1.342981,-161.293578,143.215895,182.373185,
498,-0.30367,0.282569,-0.138532,-0.049543,0.355595,1.29317,-197.549014,154.482775,206.102871,
499,-0.30367,0.282569,-0.138532,-0.028796,0.2618,1.242556,-219.831001,162.665426,225.426515,
500,-0.288991,0.297248,-0.142202,-0.008846,0.183503,1.197565,-232.482637,169.274489,241.602985,
501,-0.288991,0.297248,-0.142202,-0.014432,0.114293,1.137846,-238.651097,172.610493,253.688131,
502,-0.268807,0.322936,-0.13945,-0.005654,0.049625,1.104371,-239.532305,171.351624,263.003764,
503,-0.268807,0.322936,-0.13945,0.012433,0.008473,1.070628,-235.692754,168.078564,268.165128,
504,-0.268807,0.322936,-0.13945,0.029191,-0.045773,1.041973,-227.573047,163.735465,269.486941,
505,-0.245872,0.358716,-0.140367,0.042757,-0.071961,1.023227,-216.243223,157.755835,267.85041,
506,-0.245872,0.358716,-0.140367,0.060578,-0.103493,0.994572,-201.703283,150.328506,262.75199,
507,-0.245872,0.358716,-0.140367,0.079464,-0.124069,0.971274,-185.086208,140.635213,254.632283,
508,-0.218349,0.386239,-0.136697,0.104999,-0.144378,0.935656,-166.769659,130.753089,243.931894,
509,-0.218349,0.386239,-0.136697,0.129205,-0.165756,0.913696,-146.942468,120.367417,230.587879,
510,-0.193578,0.413761,-0.13211,0.144898,-0.192211,0.899235,-127.115276,109.100537,215.481447,
511,-0.193578,0.413761,-0.13211,0.16272,-0.210382,0.873526,-108.609897,97.644826,198.360825,
512,-0.193578,0.413761,-0.13211,0.174955,-0.222674,0.849692,-91.489275,86.377946,180.799598,
513,-0.172477,0.434862,-0.129358,0.187191,-0.236036,0.836302,-75.942239,74.418687,161.853615,
514,-0.172477,0.434862,-0.129358,0.204215,-0.247793,0.823983,-61.779959,62.396485,142.781745,
515,-0.150459,0.448624,-0.123853,0.224696,-0.271576,0.826661,-48.121227,50.940775,123.332214,
516,-0.150459,0.448624,-0.123853,0.229484,-0.280394,0.80122,-35.658421,39.799781,103.316192,
517,-0.150459,0.448624,-0.123853,0.230548,-0.297497,0.784616,-24.328597,29.099392,83.551944,
518,-0.136697,0.455046,-0.118349,0.232676,-0.317271,0.772565,-13.879982,17.769568,63.410035,
519,-0.136697,0.455046,-0.118349,0.234006,-0.33758,0.766941,-4.690236,7.195066,43.456957,
520,-0.136697,0.455046,-0.118349,0.24438,-0.366173,0.751677,4.373623,-3.064719,23.755652,
521,-0.129358,0.458716,-0.118349,0.238794,-0.357354,0.765067,12.68216,-12.758012,5.56499,
522,-0.129358,0.458716,-0.118349,0.234538,-0.353346,0.754087,22.12368,-21.758928,-12.122123,
523,-0.126606,0.46055,-0.119266,0.231878,-0.344528,0.760514,32.824069,-29.941578,-27.669159,
524,-0.126606,0.46055,-0.119266,0.230814,-0.331167,0.763728,41.950872,-37.180077,-43.090308,
525,-0.126606,0.46055,-0.119266,0.199693,-0.336511,0.76346,48.874653,-44.985066,-58.00791,
526,-0.126606,0.46055,-0.119266,0.182137,-0.322348,0.774708,52.336543,-52.349452,-72.170189,
527,-0.126606,0.46055,-0.119266,0.169902,-0.302574,0.784348,54.224847,-59.39912,-86.521299,
528,-0.126606,0.46055,-0.119266,0.170434,-0.288946,0.822912,56.553756,-65.315806,-99.550597,
529,-0.13211,0.455046,-0.119266,0.16006,-0.270507,0.841658,59.763872,-69.847735,-111.383968,
530,-0.13211,0.455046,-0.119266,0.145962,-0.250733,0.868438,63.225763,-73.5614,-121.58081,
531,-0.144037,0.449541,-0.119266,0.132662,-0.229889,0.87674,67.128258,-78.030386,-131.462934,
532,-0.144037,0.449541,-0.119266,0.116969,-0.200762,0.887184,71.723131,-82.310541,-141.156227,
533,-0.144037,0.449541,-0.119266,0.101807,-0.207977,0.907805,75.310908,-85.961262,-151.038351,
534,-0.154128,0.442202,-0.124771,0.077602,-0.211184,0.918784,77.765703,-88.667831,-161.675797,
535,-0.154128,0.442202,-0.124771,0.049406,-0.218666,0.936995,79.15046,-91.815005,-172.250299,
536,-0.172477,0.427523,-0.123853,0.040895,-0.217864,0.947171,82.990011,-96.976369,-183.076575,
537,-0.172477,0.427523,-0.123853,0.032117,-0.203702,0.960829,90.795001,-101.445355,-193.965795,
538,-0.172477,0.427523,-0.123853,0.029191,-0.191409,0.945832,101.810107,-106.732606,-205.232675,
539,-0.188073,0.420183,-0.12844,0.007645,-0.174842,0.946636,114.902348,-111.831027,-215.933064,
540,-0.188073,0.420183,-0.12844,0.007911,-0.153464,0.951724,128.183419,-117.810656,-225.248697,
541,-0.188073,0.420183,-0.12844,-0.01922,-0.120061,0.947171,141.212716,-124.545607,-233.11663,
542,-0.206422,0.405505,-0.133028,-0.02587,-0.085055,0.961097,152.668427,-130.273462,-238.403881,
543,-0.206422,0.405505,-0.133028,-0.040499,-0.035352,0.995911,161.543456,-135.749543,-241.865772,
544,-0.22844,0.384404,-0.134862,-0.033052,0.00874,1.03501,167.774859,-140.21853,-241.991659,
545,-0.22844,0.384404,-0.134862,-0.034648,0.049091,1.075716,172.432675,-141.792116,-238.781542,
546,-0.22844,0.384404,-0.134862,-0.033318,0.096656,1.105174,175.391018,-141.477399,-231.983648,
547,-0.250459,0.361468,-0.133945,-0.039967,0.134067,1.127937,175.202188,-139.777925,-222.227411,
548,-0.250459,0.361468,-0.133945,-0.038372,0.192322,1.17025,172.558562,-136.567809,-209.953435,
549,-0.250459,0.361468,-0.133945,-0.013368,0.262869,1.220061,171.42558,-130.399349,-193.399303,
550,-0.270642,0.334862,-0.141284,0.021743,0.340363,1.285404,175.265131,-120.894886,-170.99143,
551,-0.270642,0.334862,-0.141284,0.050204,0.434158,1.377796,182.314799,-104.529585,-141.659775,
552,-0.288991,0.310092,-0.133945,0.065898,0.532763,1.47474,189.742128,-83.065863,-105.089622,
553,-0.288991,0.310092,-0.133945,0.08505,0.607853,1.556419,192.13398,-55.056021,-62.036291,
554,-0.288991,0.310092,-0.133945,0.044353,0.654082,1.588823,178.160531,-23.080741,-18.038809,
555,-0.307339,0.286239,-0.133028,-0.042627,0.673589,1.593375,142.597473,9.964579,24.699804,
556,-0.307339,0.286239,-0.133028,-0.096358,0.667978,1.61105,83.745333,45.716467,68.004908,
557,-0.311009,0.269725,-0.13578,-0.116574,0.630566,1.60864,12.619217,77.880578,105.833931,
558,-0.311009,0.269725,-0.13578,-0.140779,0.565364,1.573826,-66.500719,108.093441,140.641667,
559,-0.311009,0.269725,-0.13578,-0.140513,0.449122,1.524818,-144.172955,136.921548,171.421022,
560,-0.30367,0.26422,-0.140367,-0.146897,0.338225,1.472329,-206.92759,161.65833,199.934411,
561,-0.30367,0.26422,-0.140367,-0.125617,0.215837,1.38824,-246.204313,179.09367,226.370667,
562,-0.30367,0.26422,-0.140367,-0.135459,0.134602,1.271746,-268.549243,190.486437,249.282088,
563,-0.290826,0.280734,-0.144954,-0.147695,0.050961,1.182033,-283.278014,198.794975,265.584446,
564,-0.290826,0.280734,-0.144954,-0.11152,-0.028404,1.138649,-291.397721,202.068035,277.732534,
565,-0.270642,0.312844,-0.145872,-0.085452,-0.096278,1.077858,-294.167233,200.179731,287.677602,
566,-0.270642,0.312844,-0.145872,-0.053533,-0.148119,1.026708,-290.327682,195.962519,293.720175,
567,-0.270642,0.312844,-0.145872,-0.03385,-0.193013,0.980111,-280.823219,190.423494,295.860252,
568,-0.243119,0.350459,-0.144037,-0.006718,-0.215994,0.949582,-267.0386,182.681448,292.776023,
569,-0.243119,0.350459,-0.144037,0.019349,-0.234699,0.910483,-249.288542,171.666341,285.852242,
570,-0.243119,0.350459,-0.144037,0.055258,-0.257413,0.879418,-226.754782,157.629948,275.151852,
571,-0.211927,0.385321,-0.13945,0.089571,-0.273447,0.852102,-200.885018,144.600651,262.500216,
572,-0.211927,0.385321,-0.13945,0.116969,-0.284136,0.839515,-173.819328,131.50841,246.260802,
573,-0.211927,0.385321,-0.13945,0.133194,-0.310858,0.822108,-147.257185,117.346131,227.000101,
574,-0.211927,0.385321,-0.13945,0.143036,-0.342657,0.820769,-121.765082,103.750342,204.844002,
575,-0.211927,0.385321,-0.13945,0.145696,-0.401713,0.799077,-100.553134,89.776893,178.533633,
576,-0.158716,0.440367,-0.124771,0.139578,-0.474665,0.796132,-87.146176,74.607518,148.32077,
577,-0.158716,0.440367,-0.124771,0.149686,-0.566322,0.763728,-79.026469,58.619877,114.834846,
578,-0.137615,0.455963,-0.121101,0.164848,-0.658514,0.727842,-71.410309,41.562198,78.201749,
579,-0.137615,0.455963,-0.121101,0.187457,-0.738146,0.664373,-57.625691,24.756293,39.932122,
580,-0.137615,0.455963,-0.121101,0.190117,-0.781703,0.635719,-37.924386,7.132123,-1.547621,
581,-0.125688,0.463303,-0.112844,0.191713,-0.812167,0.616169,-10.481035,-12.317408,-43.405026,
582,-0.125688,0.463303,-0.112844,0.198097,-0.822856,0.575999,21.179528,-32.33343,-87.087791,
583,-0.125688,0.463303,-0.112844,0.170966,-0.808158,0.550558,55.106056,-53.167717,-129.259912,
584,-0.122018,0.468807,-0.109174,0.1308,-0.767273,0.548148,88.025488,-75.260873,-168.851352,
585,-0.122018,0.468807,-0.109174,0.106861,-0.68871,0.573321,118.993673,-97.668747,-204.980901,
586,-0.13211,0.465138,-0.111927,0.087178,-0.597855,0.630095,144.73755,-118.188317,-236.38969,
587,-0.13211,0.465138,-0.111927,0.065898,-0.503525,0.701062,163.746477,-134.2389,-262.574172,
588,-0.13211,0.465138,-0.111927,0.031851,-0.404386,0.768548,178.852909,-147.519972,-282.14959,
589,-0.146789,0.450459,-0.117431,-0.007782,-0.31353,0.838444,189.742128,-158.535078,-296.374813,
590,-0.146789,0.450459,-0.117431,-0.041297,-0.214658,0.911018,198.176553,-168.354259,-305.690446,
591,-0.146789,0.450459,-0.117431,-0.046085,-0.142241,1.006355,204.974447,-175.215096,-309.844714,
592,-0.177982,0.429358,-0.125688,-0.062311,-0.064746,1.062058,211.142906,-177.418118,-308.082297,
593,-0.177982,0.429358,-0.125688,-0.079335,0.015688,1.104371,215.108345,-176.033361,-302.102668,
594,-0.208257,0.404587,-0.133945,-0.087846,0.124447,1.17266,217.122536,-171.060828,-291.150505,
595,-0.208257,0.404587,-0.133945,-0.068961,0.236948,1.251929,219.766161,-163.318781,-274.470487,
596,-0.208257,0.404587,-0.133945,-0.037042,0.370826,1.362263,226.752886,-151.611297,-250.174309,
597,-0.236697,0.373394,-0.13578,-0.017358,0.496154,1.458672,234.494932,-132.224709,-217.821368,
598,-0.236697,0.373394,-0.13578,0.006847,0.632971,1.583735,238.523314,-105.53668,-177.978154,
599,-0.263303,0.344954,-0.138532,0.018019,0.737455,1.661397,235.250254,-75.575591,-131.840594,
600,-0.263303,0.344954,-0.138532,-0.013634,0.820294,1.723259,215.674836,-40.51608,-82.304087,
601,-0.263303,0.344954,-0.138532,-0.038106,0.850223,1.723527,171.173806,-2.875888,-34.026449,
602,-0.277064,0.314679,-0.142202,-0.084122,0.85824,1.695943,100.551238,33.316604,9.404542,
603,-0.277064,0.314679,-0.142202,-0.109658,0.841405,1.665146,12.304499,66.550754,49.940133,
604,-0.277064,0.314679,-0.142202,-0.069493,0.764445,1.604623,-80.977716,94.182935,86.762061,
605,-0.282569,0.29633,-0.148624,-0.036244,0.655953,1.523479,-166.014338,122.507495,119.492663,
606,-0.282569,0.29633,-0.148624,-0.033318,0.519669,1.434837,-226.062404,145.544803,150.775565,
607,-0.276147,0.3,-0.147706,-0.011506,0.384455,1.3237,-259.737158,160.084744,179.351898,
608,-0.276147,0.3,-0.147706,-0.000866,0.278902,1.20185,-279.690236,169.211546,203.081585,
609,-0.276147,0.3,-0.147706,0.007113,0.168806,1.129008,-289.57236,173.869362,220.07632,
610,-0.258716,0.322936,-0.152294,0.031053,0.057909,1.048668,-293.348968,174.121136,231.846748,
611,-0.258716,0.322936,-0.152294,0.035043,-0.038558,0.992965,-295.426103,169.589207,237.700491,
612,-0.258716,0.322936,-0.152294,0.048874,-0.135827,0.928961,-297.314407,160.462404,236.378678,
613,-0.233945,0.356881,-0.146789,0.06909,-0.220537,0.895486,-297.755011,148.188429,226.118893,
614,-0.233945,0.356881,-0.146789,0.120959,-0.320211,0.88772,-291.083003,132.074901,208.683553,
615,-0.233945,0.356881,-0.146789,0.178147,-0.425763,0.852102,-273.207059,114.891335,184.009715,
616,-0.233945,0.356881,-0.146789,0.212727,-0.513947,0.822644,-243.183026,96.63773,152.412095,
617,-0.233945,0.356881,-0.146789,0.267255,-0.578882,0.763192,-200.885018,75.362839,116.471376,
618,-0.188991,0.421101,-0.129358,0.312208,-0.608009,0.716595,-146.879524,53.080852,76.691106,
619,-0.188991,0.421101,-0.129358,0.353703,-0.602665,0.669194,-85.006098,29.351166,34.707815,
620,-0.169725,0.443119,-0.119266,0.365141,-0.575675,0.601976,-19.607838,4.299667,-7.212533,
621,-0.169725,0.443119,-0.119266,0.344393,-0.504861,0.544934,44.153893,-22.199532,-50.077033,
622,-0.169725,0.443119,-0.119266,0.317528,-0.447408,0.52592,96.77463,-48.446957,-89.731416,
623,-0.168807,0.451376,-0.111927,0.285875,-0.369112,0.563145,136.5549,-73.876117,-126.67923,
624,-0.168807,0.451376,-0.111927,0.280555,-0.315668,0.627952,162.17289,-96.283991,-157.080924,
625,-0.168807,0.451376,-0.111927,0.258211,-0.261154,0.69651,179.60823,-115.796465,-180.81061,
626,-0.175229,0.447706,-0.115596,0.222302,-0.215727,0.760782,192.700471,-130.336405,-196.672364,
627,-0.175229,0.447706,-0.115596,0.187457,-0.166825,0.817823,199.372478,-142.23272,-207.561583,
628,-0.189908,0.430275,-0.121101,0.1707,-0.138767,0.872991,203.715577,-150.667145,-213.792986,
629,-0.189908,0.430275,-0.121101,0.137184,-0.101623,0.915303,206.359203,-153.688431,-214.23359,
630,-0.189908,0.430275,-0.121101,0.099147,-0.072763,0.949046,206.548033,-153.940205,-209.953435,
631,-0.214679,0.405505,-0.127523,0.070154,-0.028404,1.01064,203.40086,-152.240731,-202.589049,
632,-0.214679,0.405505,-0.127523,0.05845,0.03092,1.070092,200.001913,-147.142311,-191.322169,
633,-0.214679,0.405505,-0.127523,0.039033,0.099061,1.140524,196.414135,-138.141395,-175.019812,
634,-0.23578,0.379817,-0.133945,0.025999,0.163195,1.237468,192.259867,-124.923267,-154.248468,
635,-0.23578,0.379817,-0.133945,0.015891,0.221716,1.321825,186.406124,-107.299097,-129.259912,
636,-0.23578,0.379817,-0.133945,-0.018688,0.279169,1.373511,175.013357,-87.346019,-102.949544,
637,-0.23578,0.379817,-0.133945,-0.054065,0.311236,1.406718,152.983144,-64.182823,-75.569136,
638,-0.23578,0.379817,-0.133945,-0.085186,0.335019,1.419305,119.748995,-40.956685,-48.503446,
639,-0.27156,0.333028,-0.138532,-0.107796,0.349181,1.419573,78.080421,-18.548811,-21.87836,
640,-0.27156,0.333028,-0.138532,-0.097954,0.336355,1.39065,32.572295,2.159589,3.424913,
641,-0.282569,0.314679,-0.141284,-0.080664,0.303754,1.361728,-12.558169,24.126858,27.595203,
642,-0.282569,0.314679,-0.141284,-0.062577,0.262334,1.309238,-54.982065,44.835259,49.247755,
643,-0.282569,0.314679,-0.141284,-0.055927,0.228931,1.259427,-87.335006,61.38939,68.382569,
644,-0.277982,0.312844,-0.138532,-0.031988,0.180564,1.190067,-106.46982,72.593327,84.370209,
645,-0.277982,0.312844,-0.138532,-0.021614,0.116163,1.137578,-116.540774,82.853112,98.406602,
646,-0.277982,0.312844,-0.138532,-0.007516,0.0376,1.089909,-127.17822,90.028667,109.106991,
647,-0.272477,0.320183,-0.140367,-0.013634,-0.026533,1.028851,-142.851143,92.546405,115.778998,
648,-0.272477,0.320183,-0.140367,-0.01789,-0.108838,0.956812,-164.440751,92.294631,115.08662,
649,-0.262385,0.33578,-0.140367,-0.000334,-0.215994,0.904859,-183.575565,87.196211,107.533404,
650,-0.262385,0.33578,-0.140367,0.016955,-0.32315,0.881025,-194.968332,78.572956,93.245238,
651,-0.262385,0.33578,-0.140367,0.040097,-0.410532,0.851834,-194.905388,66.236037,73.480989,
652,-0.248624,0.353211,-0.138532,0.091433,-0.484552,0.830142,-177.218275,51.507266,49.751303,
653,-0.248624,0.353211,-0.138532,0.128673,-0.520895,0.803362,-143.039973,36.400834,23.063274,
654,-0.241284,0.376147,-0.133945,0.14277,-0.530515,0.791847,-97.154187,23.560367,-6.394268,
655,-0.241284,0.376147,-0.133945,0.144366,-0.520895,0.794257,-46.044093,6.313858,-39.628418,
656,-0.241284,0.376147,-0.133945,0.143568,-0.472794,0.767209,8.024344,-13.576277,-72.54785,
657,-0.238532,0.387156,-0.129358,0.145164,-0.407592,0.778725,61.841007,-33.592299,-103.956639,
658,-0.238532,0.387156,-0.129358,0.120161,-0.316469,0.765067,108.922719,-51.090583,-132.281199,
659,-0.238532,0.387156,-0.129358,0.095689,-0.235501,0.799881,143.352794,-66.763505,-156.64032,
660,-0.240367,0.386239,-0.127523,0.075474,-0.180721,0.848353,165.005346,-81.429333,-176.026907,
661,-0.240367,0.386239,-0.127523,0.076272,-0.142508,0.904055,181.181817,-93.766252,-189.056204,
662,-0.252294,0.369725,-0.130275,0.051268,-0.103226,0.964043,191.315715,-101.508298,-195.539381,
663,-0.252294,0.369725,-0.130275,0.024137,-0.062074,0.980111,194.337001,-107.613814,-198.875385,
664,-0.252294,0.369725,-0.130275,0.004187,-0.025464,1.027512,192.385754,-110.635101,-198.560668,
665,-0.266055,0.346789,-0.131193,-0.010974,-0.0105,1.07518,186.594955,-110.760988,-195.035834,
666,-0.266055,0.346789,-0.131193,-0.013634,0.00874,1.104103,177.719926,-108.495023,-188.237939,
667,-0.266055,0.346789,-0.131193,-0.024008,0.024506,1.12633,165.634781,-103.459546,-178.292872,
668,-0.285321,0.322936,-0.133945,-0.031722,0.039203,1.165965,152.038992,-96.346934,-165.767122,
669,-0.285321,0.322936,-0.133945,-0.018954,0.072606,1.189531,139.135582,-86.401867,-151.164238,
670,-0.297248,0.29633,-0.136697,-0.006984,0.106276,1.216847,126.421002,-73.939061,-133.351238,
671,-0.297248,0.29633,-0.136697,-0.002462,0.147963,1.248983,113.076987,-60.532102,-113.020498,
672,-0.297248,0.29633,-0.136697,-0.006452,0.166401,1.241217,98.096443,-45.299784,-90.675568,
673,-0.309174,0.275229,-0.137615,-0.00991,0.197399,1.251126,78.206308,-29.500974,-67.323542,
674,-0.309174,0.275229,-0.137615,-0.010708,0.222251,1.237736,53.658356,-13.324503,-42.586761,
675,-0.314679,0.262385,-0.133945,0.000464,0.260998,1.231576,27.536818,1.467211,-17.535261,
676,-0.314679,0.262385,-0.133945,0.030787,0.269549,1.221668,2.485319,16.510699,10.537524,
677,-0.314679,0.262385,-0.133945,0.024935,0.291996,1.21899,-17.971307,31.680074,39.302688,
678,-0.318349,0.254128,-0.13578,0.019881,0.308831,1.186318,-28.671697,42.380463,77.257597,
679,-0.318349,0.254128,-0.13578,0.041693,0.329674,1.144005,-31.189435,43.009898,118.35968,
680,-0.318349,0.254128,-0.13578,0.079996,0.361206,1.131151,-40.316238,44.205824,155.811042,
681,-0.316514,0.255046,-0.13578,0.086912,0.365215,1.114547,-59.451051,49.744849,187.660436,
682,-0.316514,0.255046,-0.13578,0.066962,0.366551,1.068218,-84.817268,56.353913,216.236769,
683,-0.312844,0.263303,-0.137615,0.044087,0.377507,1.060451,-114.715414,61.326446,240.029399,
684,-0.312844,0.263303,-0.137615,0.019349,0.234543,0.957616,-146.564807,57.423952,255.702322,
685,-0.312844,0.263303,-0.137615,0.046214,0.114293,0.960026,-169.665059,70.579136,271.501131,
686,-0.298165,0.284404,-0.137615,0.031319,0.015421,0.956009,-183.827339,84.111981,283.397446,
687,-0.298165,0.284404,-0.137615,-0.024008,-0.071961,0.945029,-192.450593,94.057048,290.258284,
688,-0.298165,0.284404,-0.137615,-0.067099,-0.173773,0.928425,-199.059657,99.029582,291.328323,
689,-0.288073,0.311009,-0.138532,-0.134395,-0.289213,0.898432,-209.382385,100.225508,284.341598,
690,-0.288073,0.311009,-0.138532,-0.17456,-0.419884,0.896557,-224.237043,95.315918,269.235167,
691,-0.27156,0.340367,-0.13211,-0.176688,-0.570331,0.925212,-235.755697,83.797264,247.582615,
692,-0.27156,0.340367,-0.13211,-0.171368,-0.715432,0.929764,-239.154645,70.201475,215.418504,
693,-0.27156,0.340367,-0.13211,-0.158335,-0.851449,0.924141,-229.461351,57.235121,174.316421,
694,-0.251376,0.37156,-0.130275,-0.136523,-0.945511,0.926283,-206.92759,41.247481,126.416444,
695,-0.251376,0.37156,-0.130275,-0.073217,-1.007506,0.922534,-171.490419,25.763389,74.173368,
696,-0.233945,0.398165,-0.120183,0.007379,-0.992809,0.884238,-122.961008,15.629491,20.167874,
697,-0.233945,0.398165,-0.120183,0.011103,-0.88405,0.826393,-71.158536,1.593098,-33.522902,
698,-0.233945,0.398165,-0.120183,0.030787,-0.72719,0.772565,-18.474855,-15.590468,-86.143639,
699,-0.22844,0.417431,-0.114679,0.033713,-0.573537,0.722754,29.299235,-32.081656,-138.449658,
700,-0.22844,0.417431,-0.114679,0.000996,-0.427634,0.70133,69.771883,-45.992162,-186.223748,
701,-0.22844,0.417431,-0.114679,-0.034116,-0.339718,0.735073,101.747164,-65.126975,-226.192849,
702,-0.23578,0.421101,-0.110092,-0.020816,-0.282265,0.800952,128.057532,-86.653641,-257.601638,
703,-0.23578,0.421101,-0.110092,0.027595,-0.206107,0.861475,150.213632,-101.130638,-277.869434,
704,-0.248624,0.404587,-0.114679,0.012433,-0.109105,0.920123,164.312968,-104.214867,-285.485593,
705,-0.248624,0.404587,-0.114679,-0.021614,-0.006224,0.988948,170.733202,-106.166115,-287.310954,
706,-0.248624,0.404587,-0.114679,-0.053533,0.046418,1.007159,174.195092,-110.44627,-283.597289,
707,-0.268807,0.380734,-0.114679,-0.074281,0.110017,1.063933,174.572753,-106.669663,-274.029883,
708,-0.268807,0.380734,-0.114679,-0.097156,0.16266,1.118296,171.110862,-99.808825,-260.497038,
709,-0.268807,0.380734,-0.114679,-0.099816,0.219311,1.192477,163.62059,-93.073874,-241.551054,
710,-0.288991,0.352294,-0.118349,-0.10221,0.290927,1.227559,152.038992,-85.646545,-217.380764,
711,-0.288991,0.352294,-0.118349,-0.094496,0.3743,1.267997,138.946752,-75.134986,-189.622696,
712,-0.307339,0.327523,-0.121101,-0.076143,0.449122,1.325842,126.609832,-62.231576,-158.27685,
713,-0.307339,0.327523,-0.121101,-0.072419,0.506575,1.332537,111.692231,-45.929218,-123.40617,
714,-0.307339,0.327523,-0.121101,-0.076409,0.572045,1.344588,91.802096,-30.067465,-83.248239,
715,-0.318349,0.305505,-0.118349,-0.068163,0.625756,1.347266,64.044028,-13.828051,-40.824344,
716,-0.318349,0.305505,-0.118349,-0.060715,0.638049,1.329859,25.270853,3.103741,1.033061,
717,-0.326606,0.288073,-0.121101,-0.050341,0.625756,1.306025,-21.307311,19.531985,41.631596,
718,-0.326606,0.288073,-0.121101,-0.009112,0.605982,1.314595,-70.025553,38.981516,83.174283,
719,-0.326606,0.288073,-0.121101,0.016157,0.55708,1.273889,-113.582431,55.409761,121.758627,
720,-0.327523,0.285321,-0.119266,0.011369,0.502032,1.214169,-149.208433,68.250228,157.258742,
721,-0.327523,0.285321,-0.119266,0.043289,0.430684,1.147219,-175.959405,78.132352,187.786323,
722,-0.327523,0.285321,-0.119266,0.066696,0.388196,1.086428,-193.961236,84.678472,213.844917,
723,-0.320183,0.299083,-0.122936,0.080262,0.337156,1.042776,-205.354004,90.028667,233.231504,
724,-0.320183,0.299083,-0.122936,0.081326,0.289324,1.00823,-211.45952,94.497653,247.456728,
725,-0.309174,0.324771,-0.122018,0.078134,0.233207,0.993233,-213.536654,94.938257,257.275908,
726,-0.309174,0.324771,-0.122018,0.06643,0.157316,0.964846,-213.347824,91.350479,261.367233,
727,-0.309174,0.324771,-0.122018,0.048076,0.075813,0.931907,-211.963068,86.566776,259.982477,
728,-0.293578,0.351376,-0.119266,0.010305,-0.037757,0.945832,-208.752951,82.475451,250.540957,
729,-0.293578,0.351376,-0.119266,-0.014166,-0.144378,0.966453,-206.675816,77.062313,234.364487,
730,-0.293578,0.351376,-0.119266,-0.032254,-0.257948,0.988948,-200.318526,65.795432,212.774878,
731,-0.276147,0.384404,-0.113761,-0.01922,-0.369914,0.999393,-186.722738,52.073757,184.576206,
732,-0.276147,0.384404,-0.113761,-0.002462,-0.473329,0.984664,-164.566638,40.995707,151.719717,
733,-0.255963,0.411009,-0.108257,0.008709,-0.544677,0.922266,-139.074535,30.106488,114.771903,
734,-0.255963,0.411009,-0.108257,0.030521,-0.546548,0.9619,-106.343933,20.539081,75.935785,
735,-0.255963,0.411009,-0.108257,0.041161,-0.499517,0.95708,-64.045924,7.887444,34.770758,
736,-0.242202,0.431193,-0.097248,0.034511,-0.467717,0.91075,-20.363159,-8.855517,-9.352611,
737,-0.242202,0.431193,-0.097248,0.052066,-0.407325,0.860404,24.263758,-26.290857,-49.510542,
738,-0.23578,0.441284,-0.092661,0.083188,-0.330365,0.832553,63.792254,-38.942494,-85.45126,
739,-0.23578,0.441284,-0.092661,0.0651,-0.255276,0.840051,92.683305,-47.251031,-116.671219,
740,-0.23578,0.441284,-0.092661,0.035575,-0.199693,0.878079,109.48921,-56.818438,-142.226266,
741,-0.242202,0.437615,-0.091743,0.040097,-0.157739,0.916106,120.75609,-67.329997,-159.91338,
742,-0.242202,0.437615,-0.091743,0.048342,-0.107502,0.917981,127.931645,-75.072043,-171.369091,
743,-0.242202,0.437615,-0.091743,0.044087,-0.05379,0.923337,132.778292,-78.030386,-176.845172,
744,-0.253211,0.422936,-0.09633,0.027063,0.012748,0.946904,134.729539,-79.037481,-178.544646,
745,-0.253211,0.422936,-0.09633,0.012699,0.07608,0.986806,135.484861,-78.722764,-176.593398,
746,-0.268807,0.407339,-0.1,0.017487,0.130593,1.0326,134.981313,-76.897403,-171.054373,
747,-0.268807,0.407339,-0.1,0.016955,0.177625,1.065807,132.589462,-71.421322,-160.228097,
748,-0.268807,0.407339,-0.1,0.012167,0.240422,1.099282,127.553984,-63.553389,-144.11457,
749,-0.281651,0.388991,-0.101835,0.000198,0.282643,1.117493,118.867786,-52.538282,-125.294474,
750,-0.281651,0.388991,-0.101835,-0.025338,0.326467,1.143737,107.286189,-40.201363,-102.823657,
751,-0.281651,0.388991,-0.101835,-0.043691,0.362542,1.155253,91.802096,-28.305048,-79.09397,
752,-0.297248,0.369725,-0.104587,-0.045021,0.38686,1.152575,71.597244,-17.478772,-53.979528,
753,-0.297248,0.369725,-0.104587,-0.058853,0.418926,1.149629,47.993444,-7.281931,-28.04682,
754,-0.302752,0.358716,-0.110092,-0.060449,0.43496,1.15927,23.319606,2.53725,-2.869434,
755,-0.302752,0.358716,-0.110092,-0.048213,0.425072,1.139988,-1.291289,11.726996,21.552631,
756,-0.302752,0.358716,-0.110092,-0.055395,0.409841,1.128741,-26.720449,20.287307,43.268126,
757,-0.304587,0.348624,-0.112844,-0.037574,0.377507,1.130347,-49.757757,25.952219,64.543017,
758,-0.304587,0.348624,-0.112844,-0.010974,0.349181,1.120439,-66.374832,29.225279,84.307266,
759,-0.304587,0.351376,-0.109174,0.021743,0.317115,1.101693,-74.620426,34.449587,101.742605,
760,-0.304587,0.351376,-0.109174,0.028659,0.286651,1.079465,-79.152356,41.373368,116.408433,
761,-0.304587,0.351376,-0.109174,0.020679,0.265006,1.043044,-83.621342,47.03828,127.864144,
762,-0.295413,0.36055,-0.110092,-0.002196,0.234009,1.057773,-89.097423,50.185453,136.235624,
763,-0.295413,0.36055,-0.110092,-0.004324,0.179762,1.033403,-95.517657,51.129605,140.893441,
764,-0.295413,0.36055,-0.110092,-0.006718,0.113224,1.036081,-101.74906,51.129605,142.907632,
765,-0.287156,0.374312,-0.108257,-0.020284,0.048823,1.027512,-108.043406,50.563114,142.089367,
766,-0.287156,0.374312,-0.108257,-0.022678,-0.030007,1.014122,-111.820014,48.045375,137.053889,
767,-0.278899,0.387156,-0.104587,-0.019752,-0.108838,1.013318,-111.127636,44.14288,128.115917,
768,-0.278899,0.387156,-0.104587,-0.023476,-0.187134,0.974487,-106.721594,39.925668,114.646016,
769,-0.278899,0.387156,-0.104587,-0.022944,-0.251267,0.95467,-98.413056,33.946039,96.770072,
770,-0.266055,0.405505,-0.1,-0.013634,-0.297764,0.932978,-86.013193,26.141049,75.369293,
771,-0.266055,0.405505,-0.1,-0.00459,-0.333572,0.909947,-69.836723,17.958399,50.569568,
772,-0.266055,0.405505,-0.1,-0.001398,-0.338114,0.877811,-50.576022,8.957483,24.070369,
773,-0.26055,0.416514,-0.098165,0.016157,-0.337847,0.886113,-28.105205,-0.609923,-3.561812,
774,-0.26055,0.416514,-0.098165,0.033979,-0.315668,0.885309,-0.724798,-10.680878,-29.68335,
775,-0.256881,0.423853,-0.09633,0.041693,-0.277989,0.881292,26.403836,-18.737641,-55.679001,
776,-0.256881,0.423853,-0.09633,0.021211,-0.232562,0.881828,49.252314,-24.52844,-77.835101,
777,-0.256881,0.423853,-0.09633,-0.003792,-0.178583,0.888255,63.918141,-31.515165,-96.34048,
778,-0.257798,0.423853,-0.094495,-0.007782,-0.116587,0.921998,73.107887,-39.320155,-111.321025,
779,-0.257798,0.423853,-0.094495,0.002858,-0.076504,0.937531,79.654007,-45.23684,-122.776735,
780,-0.262385,0.415596,-0.095413,-0.004058,-0.036955,0.969399,85.193032,-47.880466,-130.015234,
781,-0.262385,0.415596,-0.095413,-0.02188,0.008206,0.993233,89.913792,-49.642883,-132.973577,
782,-0.262385,0.415596,-0.095413,-0.015762,0.063253,1.029922,94.886326,-51.279413,-132.218255,
783,-0.270642,0.40367,-0.1,-0.015762,0.120973,1.070092,98.788821,-50.209374,-128.001043,
784,-0.270642,0.40367,-0.1,0.000464,0.165867,1.090177,101.117729,-46.558653,-120.13311,
785,-0.270642,0.40367,-0.1,-0.006718,0.211562,1.112672,98.725877,-41.712006,-108.110908,
786,-0.283486,0.390826,-0.101835,-0.014166,0.2618,1.124724,92.305644,-35.858264,-93.382137,
787,-0.283486,0.390826,-0.101835,-0.030126,0.306159,1.136775,81.416424,-28.808596,-77.394497,
788,-0.292661,0.377982,-0.101835,-0.022944,0.342768,1.131686,68.387127,-20.059454,-59.140892,
789,-0.292661,0.377982,-0.101835,-0.029328,0.379377,1.142666,52.147713,-11.562086,-39.376644,
790,-0.292661,0.377982,-0.101835,-0.02188,0.388196,1.150432,33.579391,-2.875888,-18.164696,
791,-0.298165,0.366055,-0.10367,-0.031456,0.376171,1.139988,12.49333,6.187971,2.732534,
792,-0.298165,0.366055,-0.10367,-0.048213,0.358267,1.122849,-12.747,15.629491,23.440935,
793,-0.298165,0.366055,-0.10367,-0.049011,0.347044,1.146148,-38.113216,22.427385,42.449861,
794,-0.299083,0.362385,-0.107339,-0.025072,0.318718,1.15311,-56.996256,27.777579,60.388749,
795,-0.299083,0.362385,-0.107339,0.011369,0.286384,1.160609,-66.626606,34.764304,76.75405,
796,-0.299083,0.362385,-0.107339,0.015359,0.264205,1.134364,-70.466157,42.632237,91.10516,
797,-0.299083,0.362385,-0.107339,0.003656,0.245766,1.094462,-72.732122,48.48598,102.875588,
798,-0.299083,0.362385,-0.107339,-0.006984,0.21851,1.06795,-75.438691,51.381379,110.554691,
799,-0.293578,0.372477,-0.106422,-0.005122,0.160522,1.052417,-80.474168,53.143796,114.834846,
800,-0.293578,0.372477,-0.106422,-6.8E-05,0.093182,1.040634,-86.327911,53.5844,116.660207,
801,-0.284404,0.379817,-0.101835,-0.001398,0.00687,1.006355,-92.874031,51.570209,113.63892,
802,-0.284404,0.379817,-0.101835,-0.004324,-0.059669,0.989752,-98.224226,46.723562,106.715139,
803,-0.284404,0.379817,-0.101835,0.013497,-0.136362,0.947975,-97.657735,41.310424,94.441163,
804,-0.275229,0.393578,-0.102752,0.032649,-0.200762,0.926283,-89.978632,35.519626,78.642354,
805,-0.275229,0.393578,-0.102752,0.046746,-0.243251,0.89495,-76.3199,28.281127,59.129879,
806,-0.275229,0.393578,-0.102752,0.056056,-0.265964,0.862546,-57.499804,19.343155,36.910836,
807,-0.266972,0.407339,-0.100917,0.07441,-0.266499,0.86817,-36.413743,8.265105,13.432924,
808,-0.266972,0.407339,-0.100917,0.086646,-0.238708,0.847014,-10.292205,-2.120567,-10.107932,
809,-0.259633,0.415596,-0.098165,0.101275,-0.206374,0.84139,17.151146,-12.254465,-32.641693,
810,-0.259633,0.415596,-0.098165,0.093295,-0.164153,0.837909,40.692002,-21.633041,-53.979528,
811,-0.259633,0.415596,-0.098165,0.072548,-0.124871,0.844068,57.497908,-30.948674,-71.792528,
812,-0.261468,0.417431,-0.09633,0.057652,-0.070358,0.865492,67.065314,-40.201363,-87.654282,
813,-0.261468,0.417431,-0.09633,0.051268,-0.03642,0.886381,73.611435,-47.565749,-99.739427,
814,-0.261468,0.417431,-0.09633,0.058982,-0.014241,0.939405,79.905781,-52.349452,-108.173851,
815,-0.266972,0.412844,-0.098165,0.039565,0.01355,0.969935,85.255976,-54.67836,-113.524046,
816,-0.266972,0.412844,-0.098165,0.013497,0.054168,0.983057,89.347301,-55.559569,-115.538237,
817,-0.266972,0.412844,-0.098165,0.010571,0.084898,1.032332,92.935078,-56.440777,-114.216424,
818,-0.266972,0.412844,-0.098165,0.005251,0.131128,1.06179,94.445722,-54.552473,-110.313929,
819,-0.266972,0.412844,-0.098165,-0.006984,0.166401,1.086696,94.886326,-50.272318,-102.50894,
820,-0.284404,0.389908,-0.1,-0.012836,0.201407,1.11669,92.05387,-44.166801,-91.80855,
821,-0.284404,0.389908,-0.1,-0.023742,0.243361,1.123652,85.50775,-36.550642,-78.464536,
822,-0.293578,0.375229,-0.101835,-0.024806,0.262601,1.146683,74.4297,-28.745652,-62.854556,
823,-0.293578,0.375229,-0.101835,-0.049277,0.300012,1.15686,60.645081,-19.367076,-46.615142,
824,-0.293578,0.375229,-0.101835,-0.047415,0.308029,1.160073,44.720384,-9.170235,-28.865085,
825,-0.300917,0.366055,-0.105505,-0.046085,0.313908,1.164358,26.466779,0.586002,-10.233819,
826,-0.300917,0.366055,-0.105505,-0.057523,0.306159,1.147754,7.080192,9.901635,8.208616,
827,-0.300917,0.366055,-0.105505,-0.063641,0.28104,1.124991,-14.887078,18.021342,25.266295,
828,-0.305505,0.357798,-0.105505,-0.055661,0.25886,1.131954,-34.840156,24.756293,41.379822,
829,-0.305505,0.357798,-0.105505,-0.015762,0.231604,1.121242,-48.561832,29.854714,56.42331,
830,-0.300917,0.355963,-0.106422,0.009507,0.216372,1.103835,-54.667348,35.897286,70.082042,
831,-0.300917,0.355963,-0.106422,0.012699,0.202209,1.069289,-56.555652,42.31752,81.726583,
832,-0.300917,0.355963,-0.106422,0.010039,0.188848,1.048668,-59.828712,47.415941,91.734594,
833,-0.298165,0.366972,-0.108257,0.011369,0.176556,1.030458,-64.612415,49.933679,99.980188,
834,-0.298165,0.366972,-0.108257,0.016157,0.143687,1.01064,-70.843818,50.940775,106.652196,
835,-0.291743,0.373394,-0.110092,0.023871,0.100932,1.001803,-75.501635,50.626057,111.058238,
836,-0.291743,0.373394,-0.110092,0.019881,0.052297,0.981718,-80.159451,50.374283,111.247069,
837,-0.291743,0.373394,-0.110092,0.019615,-0.02199,0.973416,-84.943155,48.611866,107.785178,
838,-0.281651,0.383486,-0.107339,0.006847,-0.109372,0.931907,-89.978632,44.079937,99.476641,
839,-0.281651,0.383486,-0.107339,0.002326,-0.199159,0.91932,-92.433427,37.78559,86.447343,
840,-0.281651,0.383486,-0.107339,0.016157,-0.270774,0.87674,-89.538027,29.79177,68.067851,
841,-0.272477,0.397248,-0.106422,0.024137,-0.315935,0.864689,-78.900582,20.476137,45.848808,
842,-0.272477,0.397248,-0.106422,0.043821,-0.342123,0.84996,-58.947503,9.901635,21.426744,
843,-0.269725,0.404587,-0.105505,0.069356,-0.352812,0.845675,-30.874718,-2.057623,-4.757738,
844,-0.269725,0.404587,-0.105505,0.070154,-0.340519,0.824519,0.597015,-11.499143,-31.571654,
845,-0.269725,0.404587,-0.105505,0.060312,-0.298298,0.823447,30.1175,-21.44421,-57.378475,
846,-0.263303,0.415596,-0.1,0.040629,-0.234967,0.832017,54.287791,-32.459317,-80.667557,
847,-0.263303,0.415596,-0.1,0.034511,-0.167627,0.845407,72.415509,-43.537367,-100.998296,
848,-0.263303,0.415596,-0.1,0.016423,-0.104295,0.882364,85.130089,-52.412395,-118.181862,
849,-0.265138,0.409174,-0.099083,0.016689,-0.058065,0.907001,91.990927,-59.273233,-130.959386,
850,-0.265138,0.409174,-0.099083,0.010571,-0.021723,0.942887,97.718782,-63.679276,-139.330867,
851,-0.275229,0.399083,-0.098165,-0.013368,0.014619,0.971006,101.49539,-66.071127,-143.233362,
852,-0.275229,0.399083,-0.098165,-0.030126,0.053366,1.014389,102.628372,-67.896488,-143.422192,
853,-0.275229,0.399083,-0.098165,-0.029594,0.092915,1.03742,102.817203,-68.211205,-141.03034,
854,-0.286239,0.386239,-0.104587,-0.029594,0.12231,1.082143,101.306559,-65.693467,-135.302485,
855,-0.286239,0.386239,-0.104587,-0.043159,0.154376,1.109994,98.537047,-60.657989,-126.364513,
856,-0.29633,0.372477,-0.10367,-0.046883,0.184572,1.128205,94.256891,-55.244851,-115.097633,
857,-0.29633,0.372477,-0.10367,-0.050075,0.218242,1.153914,88.466092,-47.376918,-101.753618,
858,-0.29633,0.372477,-0.10367,-0.050341,0.244697,1.164358,81.479368,-39.383098,-86.206582,
859,-0.309174,0.355963,-0.105505,-0.061779,0.270885,1.158466,71.723131,-30.004522,-68.582412,
860,-0.309174,0.355963,-0.105505,-0.070291,0.292797,1.162751,57.938512,-19.933567,-50.139976,
861,-0.309174,0.355963,-0.105505,-0.071887,0.301349,1.161948,41.38438,-10.806765,-31.508711,
862,-0.316514,0.344037,-0.104587,-0.068961,0.305891,1.148826,22.879002,-0.861697,-12.185067,
863,-0.316514,0.344037,-0.104587,-0.067099,0.304021,1.137846,5.569549,7.950388,6.697973,
864,-0.320183,0.338532,-0.10367,-0.061247,0.277299,1.133561,-13.313491,16.88836,24.070369,
865,-0.320183,0.338532,-0.10367,-0.062311,0.257791,1.131419,-31.630039,25.322784,40.498614,
866,-0.320183,0.338532,-0.10367,-0.047681,0.243361,1.124456,-44.155789,30.924753,56.04565,
867,-0.319266,0.334862,-0.108257,-0.021082,0.223587,1.124188,-50.198362,36.463778,70.082042,
868,-0.319266,0.334862,-0.108257,-0.008314,0.200338,1.099818,-52.149609,42.443407,81.978357,
869,-0.319266,0.334862,-0.108257,-0.013368,0.176288,1.082947,-54.856178,48.171262,92.804633,
870,-0.316514,0.343119,-0.106422,-0.025338,0.130326,1.045187,-61.024638,51.75904,100.231962,
871,-0.316514,0.343119,-0.106422,-0.042095,0.054702,1.022156,-70.088497,52.073757,103.442079,
872,-0.309174,0.350459,-0.107339,-0.054065,-0.066349,1.021085,-81.984812,50.563114,101.239058,
873,-0.309174,0.350459,-0.107339,-0.061779,-0.176979,1.008498,-92.811088,49.681905,94.441163,
874,-0.309174,0.350459,-0.107339,-0.061779,-0.26062,0.979575,-99.608982,47.667714,83.740774,
875,-0.297248,0.361468,-0.107339,-0.031456,-0.342924,0.947439,-97.0283,42.065746,66.997813,
876,-0.297248,0.361468,-0.107339,-0.015762,-0.397171,0.899503,-82.991907,33.820152,46.79296,
877,-0.292661,0.373394,-0.107339,0.000996,-0.408394,0.863885,-58.003351,25.008067,24.070369,
878,-0.292661,0.373394,-0.107339,0.025999,-0.399576,0.832553,-26.468675,14.622395,-0.98113,
879,-0.292661,0.373394,-0.107339,0.029191,-0.363501,0.830946,6.13604,4.551441,-26.787951,
880,-0.289908,0.381651,-0.102752,0.024403,-0.309522,0.81461,34.460599,-6.148948,-51.776506,
881,-0.289908,0.381651,-0.102752,0.002592,-0.244319,0.801488,55.231943,-18.297037,-74.562041,
882,-0.289908,0.381651,-0.102752,-0.002728,-0.176979,0.824519,68.135353,-29.689804,-92.626815,
883,-0.284404,0.382569,-0.106422,0.003921,-0.131819,0.857994,77.010382,-39.005437,-106.789095,
884,-0.284404,0.382569,-0.106422,0.003124,-0.085322,0.909947,83.934163,-44.922123,-117.04888,
885,-0.293578,0.374312,-0.10367,-0.005122,-0.056195,0.960294,90.543227,-49.202279,-123.595,
886,-0.293578,0.374312,-0.10367,-0.01922,-0.041765,0.997518,96.145195,-51.531187,-126.4904,
887,-0.293578,0.374312,-0.10367,-0.050873,-0.013439,1.030458,100.425351,-50.901752,-127.623382,
888,-0.301835,0.363303,-0.107339,-0.064971,-0.009164,1.095801,101.054786,-48.384014,-125.483304,
889,-0.301835,0.363303,-0.107339,-0.080399,-0.00569,1.130615,98.22233,-43.977971,-121.140205,
890,-0.301835,0.363303,-0.107339,-0.09024,-0.008897,1.160609,93.060965,-36.865359,-114.845859,
891,-0.309174,0.346789,-0.109174,-0.113382,-0.012905,1.171053,85.067145,-28.116218,-106.726152,
892,-0.309174,0.346789,-0.109174,-0.115776,-0.033748,1.181765,75.373852,-19.43002,-97.97701,
893,-0.319266,0.33211,-0.111927,-0.118702,-0.039093,1.152843,63.036932,-9.9885,-88.472547,
894,-0.319266,0.33211,-0.111927,-0.116308,-0.054324,1.138114,49.315257,0.271285,-79.219857,
895,-0.319266,0.33211,-0.111927,-0.109658,-0.048445,1.107584,34.712373,9.586918,-69.967168,
896,-0.322018,0.319266,-0.111009,-0.081994,-0.043635,1.073306,21.431302,18.084286,-60.651535,
897,-0.322018,0.319266,-0.111009,-0.067365,-0.011836,1.05081,10.605026,25.826332,-50.769411,
898,-0.326606,0.312844,-0.113761,-0.039435,0.023972,0.998857,1.60411,31.554187,-42.334987,
899,-0.326606,0.312844,-0.113761,-0.009378,0.070468,1.003677,-7.207975,37.59676,-32.893467,
900,-0.326606,0.312844,-0.113761,0.009507,0.103871,0.995376,-17.215986,43.576389,-23.577834,
901,-0.325688,0.304587,-0.115596,0.030521,0.143153,1.006891,-30.56,48.548923,-13.632767,
902,-0.325688,0.304587,-0.115596,0.060312,0.182702,1.017335,-44.092846,52.640248,-2.554717,
903,-0.325688,0.304587,-0.115596,0.100211,0.224656,1.029119,-56.303878,55.661535,9.845146,
904,-0.322018,0.305505,-0.119266,0.140908,0.265541,1.038759,-64.360641,58.682821,22.245009,
905,-0.322018,0.305505,-0.119266,0.164582,0.315511,1.027244,-67.885475,62.207655,35.463136,
906,-0.316514,0.309174,-0.118349,0.190649,0.345707,1.026708,-69.773779,65.040111,48.681264,
907,-0.316514,0.309174,-0.118349,0.204215,0.372964,1.014657,-73.298613,66.739584,61.836448,
908,-0.316514,0.309174,-0.118349,0.210865,0.390334,0.998589,-79.467073,66.424867,74.110424,
909,-0.312844,0.314679,-0.123853,0.224962,0.393006,0.977433,-86.013193,65.543659,86.069683,
910,-0.312844,0.314679,-0.123853,0.245178,0.390868,0.960829,-91.866936,64.033015,96.329467,
911,-0.312844,0.314679,-0.123853,0.256615,0.382851,0.93887,-94.573505,61.38939,105.519213,
912,-0.306422,0.327523,-0.122936,0.253956,0.373766,0.928158,-94.888222,57.612782,112.883599,
913,-0.306422,0.327523,-0.122936,0.253956,0.362275,0.921195,-92.370483,53.206739,118.233793,
914,-0.295413,0.33945,-0.124771,0.246242,0.343837,0.918517,-88.027384,47.604771,121.318023,
915,-0.295413,0.33945,-0.124771,0.23374,0.315511,0.919052,-82.551303,43.009898,123.017497,
916,-0.295413,0.33945,-0.124771,0.208205,0.289324,0.934049,-77.578769,37.848534,123.143384,
917,-0.286239,0.353211,-0.122936,0.174955,0.25405,0.954938,-71.850914,32.120679,122.325119,
918,-0.286239,0.353211,-0.122936,0.16671,0.192856,0.945832,-65.24185,26.770484,120.877419,
919,-0.278899,0.365138,-0.120183,0.125215,0.145825,0.946368,-59.010447,21.79795,118.107906,
920,-0.278899,0.365138,-0.120183,0.097551,0.097725,0.941012,-52.275496,17.391908,114.205412,
921,-0.278899,0.365138,-0.120183,0.064302,0.035462,0.927354,-45.540545,12.608204,108.666387,
922,-0.270642,0.379817,-0.118349,0.024137,-0.022792,0.909411,-40.505068,7.887444,102.057323,
923,-0.270642,0.379817,-0.118349,-0.017092,-0.077573,0.894682,-36.72846,3.166684,94.755881,
924,-0.270642,0.379817,-0.118349,-0.049277,-0.139034,0.893611,-34.966043,-0.924641,87.076778,
925,-0.266972,0.387156,-0.118349,-0.082526,-0.182324,0.912625,-34.021891,-5.330683,77.887032,
926,-0.266972,0.387156,-0.118349,-0.1062,-0.226148,0.917445,-32.322418,-8.289026,68.571399,
927,-0.259633,0.394495,-0.115596,-0.146099,-0.244854,0.959758,-29.741735,-10.051443,58.563388,
928,-0.259633,0.394495,-0.115596,-0.178816,-0.263559,1.005284,-26.720449,-10.492047,47.548282,
929,-0.259633,0.394495,-0.115596,-0.193978,-0.288678,1.056702,-23.006785,-9.422009,35.651967,
930,-0.255963,0.4,-0.111009,-0.219779,-0.311125,1.113208,-18.789572,-6.337779,25.014521,
931,-0.255963,0.4,-0.111009,-0.247709,-0.323952,1.142666,-15.264738,-4.386531,13.36998,
932,-0.255963,0.4,-0.111009,-0.255422,-0.331968,1.162751,-11.614017,-1.617019,3.173139,
933,-0.254128,0.405505,-0.110092,-0.256752,-0.330632,1.16168,-8.781561,1.844872,-6.331325,
934,-0.254128,0.405505,-0.110092,-0.2509,-0.321279,1.147754,-6.263823,6.376801,-15.835788,
935,-0.255046,0.407339,-0.111009,-0.233611,-0.300436,1.127402,-5.193784,10.53107,-25.340251,
936,-0.255046,0.407339,-0.111009,-0.214193,-0.262491,1.109191,-5.508501,14.433565,-32.95641,
937,-0.255046,0.407339,-0.111009,-0.180678,-0.208779,1.088035,-6.704427,18.147229,-40.194909,
938,-0.254128,0.405505,-0.109174,-0.141045,-0.158274,1.09473,-8.152127,21.357346,-47.496351,
939,-0.254128,0.405505,-0.109174,-0.099284,-0.096545,1.100354,-10.103374,24.945123,-53.161263,
940,-0.255046,0.404587,-0.111927,-0.050873,-0.040696,1.111333,-12.495226,29.477053,-56.182549,
941,-0.255046,0.404587,-0.111927,-0.016294,0.038135,1.106781,-15.264738,34.3237,-55.804888,
942,-0.255046,0.404587,-0.111927,0.044619,0.121508,1.097943,-18.411912,36.652608,-53.413037,
943,-0.254128,0.405505,-0.110092,0.108723,0.220113,1.075984,-21.118481,40.806877,-48.629333,
944,-0.254128,0.405505,-0.110092,0.1574,0.318451,1.056434,-25.335693,43.702276,-42.586761,
945,-0.254128,0.405505,-0.110092,0.214854,0.418926,1.038492,-28.797583,44.961145,-35.348262,
946,-0.257798,0.402752,-0.111927,0.289599,0.498559,1.010908,-30.874718,45.275863,-26.473233,
947,-0.257798,0.402752,-0.111927,0.340138,0.557615,1.001803,-32.574191,46.031184,-16.842883,
948,-0.256881,0.402752,-0.116514,0.39041,0.608654,0.953599,-33.4554,45.338806,-4.757738,
949,-0.256881,0.402752,-0.116514,0.440417,0.65622,0.926015,-33.770117,42.50635,8.64922,
950,-0.256881,0.402752,-0.116514,0.46941,0.681873,0.907269,-35.028987,39.359177,21.426744,
951,-0.252294,0.405505,-0.113761,0.48936,0.691493,0.870312,-36.476686,36.023173,34.07838,
952,-0.252294,0.405505,-0.113761,0.493084,0.695501,0.847282,-40.253294,32.246565,45.597034,
953,-0.252294,0.405505,-0.113761,0.504522,0.67733,0.849692,-43.211637,27.651692,56.108593,
954,-0.250459,0.408257,-0.114679,0.515693,0.64847,0.848621,-44.974054,23.24565,65.990717,
955,-0.250459,0.408257,-0.114679,0.500266,0.614266,0.848085,-45.351715,19.154325,74.991633,
956,-0.250459,0.408257,-0.114679,0.491488,0.570709,0.828268,-44.72228,14.937112,82.041301,
957,-0.250459,0.408257,-0.114679,0.482976,0.529556,0.8122,-42.833976,10.405183,87.769156,
958,-0.250459,0.408257,-0.114679,0.462229,0.487335,0.789437,-40.882729,5.558536,92.804633,
959,-0.236697,0.419266,-0.111927,0.437225,0.440037,0.766406,-39.057368,0.334229,96.392411,
960,-0.236697,0.419266,-0.111927,0.38775,0.399954,0.76587,-38.427934,-4.764192,98.217771,
961,-0.23211,0.426606,-0.109174,0.344393,0.342768,0.760782,-37.609669,-10.680878,98.658376,
962,-0.23211,0.426606,-0.109174,0.30476,0.275695,0.768816,-36.224912,-16.094016,98.154828,
963,-0.23211,0.426606,-0.109174,0.238262,0.22519,0.79506,-34.210721,-20.563002,96.329467,
964,-0.223853,0.433028,-0.107339,0.161656,0.169341,0.845675,-31.252379,-23.206627,92.93052,
965,-0.223853,0.433028,-0.107339,0.077602,0.104138,0.895486,-26.216901,-26.227914,86.3844,
966,-0.223853,0.433028,-0.107339,0.002326,0.02798,0.955473,-20.237272,-28.745652,80.152997,
967,-0.221101,0.441284,-0.102752,-0.067631,-0.036153,0.980379,-15.705343,-29.752748,73.732763,
968,-0.221101,0.441284,-0.102752,-0.132267,-0.098149,1.019746,-13.061717,-30.948674,66.305434,
969,-0.222018,0.446789,-0.102752,-0.193978,-0.140103,1.040634,-10.292205,-31.766939,57.556293,
970,-0.222018,0.446789,-0.102752,-0.244517,-0.173773,1.078394,-7.711523,-31.263391,47.674169,
971,-0.222018,0.446789,-0.102752,-0.295587,-0.197021,1.13972,-4.060802,-29.186257,37.603214,
972,-0.216514,0.449541,-0.097248,-0.33655,-0.202633,1.213098,-1.291289,-25.661423,26.839882,
973,-0.216514,0.449541,-0.097248,-0.366076,-0.213322,1.268533,0.974676,-19.61885,16.580097,
974,-0.216514,0.449541,-0.097248,-0.392143,-0.237639,1.319951,1.855884,-13.324503,7.01269,
975,-0.214679,0.451376,-0.09633,-0.414753,-0.247259,1.345392,-0.347137,-6.526609,-1.799395,
976,-0.214679,0.451376,-0.09633,-0.420604,-0.252603,1.347534,-3.683141,0.208342,-9.793215,
977,-0.214679,0.451376,-0.09633,-0.409433,-0.256077,1.3237,-6.641484,7.383897,-17.849979,
978,-0.214679,0.451376,-0.09633,-0.396399,-0.253939,1.309774,-8.089183,14.496508,-25.403195,
979,-0.214679,0.451376,-0.09633,-0.378045,-0.236837,1.281923,-8.278014,20.413194,-33.082297,
980,-0.219266,0.450459,-0.098165,-0.349584,-0.214658,1.262373,-7.963296,26.770484,-40.57257,
981,-0.219266,0.450459,-0.098165,-0.311281,-0.183126,1.248715,-8.529788,32.876,-47.559294,
982,-0.215596,0.451376,-0.092661,-0.272446,-0.152662,1.241753,-9.285109,39.359177,-53.161263,
983,-0.215596,0.451376,-0.092661,-0.227759,-0.116587,1.241753,-10.606922,45.527637,-57.567305,
984,-0.215596,0.451376,-0.092661,-0.185732,-0.064746,1.217918,-12.180509,51.696096,-60.085044,
985,-0.218349,0.449541,-0.095413,-0.124819,-0.020387,1.175606,-14.950021,57.990443,-61.28097,
986,-0.218349,0.449541,-0.095413,-0.076143,0.036531,1.157127,-18.915459,64.725394,-61.4698,
987,-0.218349,0.449541,-0.095413,-0.00991,0.102268,1.124456,-22.755011,70.390305,-60.336818,
988,-0.218349,0.446789,-0.097248,0.071484,0.174418,1.097408,-25.524523,73.726309,-56.874927,
989,-0.218349,0.446789,-0.097248,0.16671,0.234009,1.026173,-25.839241,74.985178,-52.594772,
990,-0.215596,0.448624,-0.098165,0.247838,0.297607,0.966989,-26.405732,77.1882,-47.559294,
991,-0.215596,0.448624,-0.098165,0.32737,0.349983,0.896557,-27.790488,77.37703,-42.586761,
992,-0.215596,0.448624,-0.098165,0.397592,0.404496,0.821037,-28.92347,74.985178,-37.740114,
993,-0.215596,0.449541,-0.102752,0.477124,0.447252,0.774975,-29.238188,71.649175,-32.76758,
994,-0.215596,0.449541,-0.102752,0.550273,0.498024,0.727039,-28.294036,66.928415,-28.802142,
995,-0.213761,0.450459,-0.10367,0.617037,0.543185,0.715256,-26.531619,64.221846,-24.396099,
996,-0.213761,0.450459,-0.10367,0.676088,0.580329,0.702669,-25.272749,58.49399,-19.86417,
997,-0.213761,0.450459,-0.10367,0.724232,0.609189,0.681513,-24.517428,54.465609,-13.947484,
998,-0.208257,0.446789,-0.10367,0.756418,0.643928,0.656875,-24.643315,50.248397,-7.779024,
999,-0.208257,0.446789,-0.10367,0.793657,0.664771,0.621257,-24.958032,44.520541,-1.988225,
1000,-0.208257,0.446789,-0.10367,0.820522,0.696303,0.596352,-24.580371,39.23329,3.676686,
1001,-0.205505,0.451376,-0.104587,0.844994,0.704587,0.575999,-23.069728,33.127774,8.586277,
1002,-0.205505,0.451376,-0.104587,0.868933,0.710199,0.56127,-19.796668,27.211088,13.558811,
1003,-0.200917,0.455046,-0.106422,0.873455,0.700044,0.533151,-18.286025,20.979685,18.594288,
1004,-0.200917,0.455046,-0.106422,0.861219,0.6947,0.498872,-18.726629,13.300582,25.014521,
1005,-0.200917,0.455046,-0.106422,0.852175,0.68508,0.468343,-21.055537,4.803215,31.497698,
1006,-0.199083,0.458716,-0.10367,0.843398,0.683209,0.467272,-23.510332,-4.764192,38.169705,
1007,-0.199083,0.458716,-0.10367,0.824778,0.676529,0.478252,-25.335693,-13.576277,44.464052,
1008,-0.199083,0.458716,-0.10367,0.795519,0.675727,0.489767,-24.832145,-20.877719,50.380738,
1009,-0.192661,0.458716,-0.10367,0.761738,0.664771,0.542524,-23.950937,-27.864444,57.87101,
1010,-0.192661,0.458716,-0.10367,0.709337,0.635911,0.55886,-23.132672,-34.095847,66.179548,
1011,-0.19633,0.46055,-0.1,0.63805,0.618541,0.567429,-26.091014,-38.753663,75.243407,
1012,-0.19633,0.46055,-0.1,0.580596,0.60812,0.618847,-29.301131,-44.040915,84.433152,
1013,-0.19633,0.46055,-0.1,0.507182,0.583535,0.645627,-31.063548,-48.572844,91.923425,
1014,-0.192661,0.46789,-0.099083,0.432703,0.561623,0.688208,-33.958948,-51.090583,98.973093,
1015,-0.192661,0.46789,-0.099083,0.347585,0.536771,0.745517,-36.350799,-53.923039,105.204496,
1016,-0.189908,0.468807,-0.093578,0.266989,0.515928,0.802827,-37.420838,-56.566664,110.302917,
1017,-0.189908,0.468807,-0.093578,0.178679,0.510851,0.868706,-36.036082,-57.321986,115.590168,
1018,-0.189908,0.468807,-0.093578,0.100743,0.491611,0.960026,-34.084835,-57.825533,120.499758,
1019,-0.188073,0.473394,-0.088073,0.017753,0.46382,0.997518,-33.266569,-57.95142,125.97584,
1020,-0.188073,0.473394,-0.088073,-0.069493,0.424805,1.030458,-35.784308,-59.462064,130.696599,
1021,-0.188073,0.473394,-0.088073,-0.137853,0.386325,1.048936,-42.833976,-60.343272,135.79502,
1022,-0.183486,0.480734,-0.082569,-0.188126,0.349181,1.068485,-52.338439,-60.028555,139.256911,
1023,-0.183486,0.480734,-0.082569,-0.237601,0.305624,1.103567,-60.33226,-58.895572,140.32695,
1024,-0.177064,0.486239,-0.079817,-0.284416,0.247904,1.149629,-64.927133,-56.31489,139.634572,
1025,-0.177064,0.486239,-0.079817,-0.339742,0.185107,1.196226,-67.256041,-51.468243,136.424455,
1026,-0.177064,0.486239,-0.079817,-0.405709,0.115896,1.267997,-68.011362,-45.929218,131.451921,
1027,-0.17156,0.493578,-0.072477,-0.445076,0.036264,1.340303,-69.081401,-40.704911,125.787009,
1028,-0.17156,0.493578,-0.072477,-0.471409,-0.030542,1.386633,-70.025553,-35.102942,119.429719,
1029,-0.17156,0.493578,-0.072477,-0.490295,-0.081848,1.419037,-68.451967,-28.053274,112.254164,
1030,-0.166972,0.506422,-0.063303,-0.512904,-0.120595,1.418234,-65.745398,-20.059454,103.190305,
1031,-0.166972,0.506422,-0.063303,-0.524076,-0.151593,1.424929,-61.528185,-12.065634,91.10516,
1032,-0.157798,0.511927,-0.057798,-0.517426,-0.180988,1.400023,-56.744482,-5.204796,77.320541,
1033,-0.157798,0.511927,-0.057798,-0.495083,-0.216528,1.372975,-51.960779,0.145398,62.717657,
1034,-0.157798,0.511927,-0.057798,-0.480187,-0.246992,1.327717,-47.80651,4.677328,48.492434,
1035,-0.152294,0.517431,-0.053211,-0.45944,-0.272111,1.31272,-43.08575,8.957483,33.386002,
1036,-0.152294,0.517431,-0.053211,-0.425392,-0.291885,1.304954,-35.469591,12.230543,17.713079,
1037,-0.149541,0.522018,-0.047706,-0.392409,-0.306048,1.27496,-25.146862,14.559452,1.347778,
1038,-0.149541,0.522018,-0.047706,-0.35384,-0.328227,1.243359,-13.817039,17.643682,-15.458127,
1039,-0.149541,0.522018,-0.047706,-0.324847,-0.321814,1.227024,-3.557254,20.476137,-32.389919,
1040,-0.144037,0.523853,-0.044954,-0.288672,-0.319943,1.187389,3.429471,22.553272,-48.503446,
1041,-0.144037,0.523853,-0.044954,-0.235473,-0.286808,1.158734,9.22027,23.875085,-63.798708,
1042,-0.144037,0.523853,-0.044954,-0.184668,-0.258215,1.136507,15.136955,25.763389,-76.953893,
1043,-0.145872,0.522936,-0.045872,-0.142641,-0.218399,1.140524,20.235376,28.658788,-89.227868,
1044,-0.145872,0.522936,-0.045872,-0.08625,-0.182324,1.119635,23.76021,31.4283,-99.361766,
1045,-0.150459,0.522018,-0.046789,-0.037042,-0.145714,1.092052,25.900288,34.701361,-107.544417,
1046,-0.150459,0.522018,-0.046789,0.00339,-0.095477,1.082143,26.907383,39.296234,-114.279368,
1047,-0.150459,0.522018,-0.046789,0.058716,-0.045773,1.063129,26.152062,43.513446,-119.314845,
1048,-0.155963,0.521101,-0.051376,0.113245,0.01355,1.034742,24.515532,48.48598,-121.454923,
1049,-0.155963,0.521101,-0.051376,0.157666,0.088105,0.97663,20.738924,52.892022,-122.776735,
1050,-0.155963,0.521101,-0.051376,0.214588,0.186443,0.918784,15.199899,55.787421,-122.587905,
1051,-0.162385,0.514679,-0.054128,0.282683,0.2781,0.846478,8.150231,57.109234,-122.587905,
1052,-0.162385,0.514679,-0.054128,0.352373,0.365482,0.786491,0.471128,57.423952,-121.895527,
1053,-0.169725,0.509174,-0.059633,0.41701,0.459277,0.72811,-6.452653,56.416856,-119.629562,
1054,-0.169725,0.509174,-0.059633,0.491488,0.542917,0.666248,-10.921639,53.710287,-116.104728,
1055,-0.169725,0.509174,-0.059633,0.552932,0.650074,0.620454,-13.376434,48.360093,-111.446912,
1056,-0.172477,0.508257,-0.06055,0.630337,0.760169,0.591532,-12.306396,40.114499,-106.663208,
1057,-0.172477,0.508257,-0.06055,0.700293,0.87267,0.576535,-7.711523,31.113583,-100.305918,
1058,-0.175229,0.504587,-0.063303,0.777431,0.98036,0.562341,-0.347137,20.413194,-93.759798,
1059,-0.175229,0.504587,-0.063303,0.82531,1.080569,0.547344,10.101478,9.461031,-87.150734,
1060,-0.175229,0.504587,-0.063303,0.867071,1.161804,0.550022,20.927754,0.145398,-77.960988,
1061,-0.185321,0.501835,-0.06422,0.870795,1.23048,0.561806,28.921574,-8.037252,-65.749956,
1062,-0.185321,0.501835,-0.06422,0.856697,1.292743,0.582962,30.1175,-16.031072,-52.594772,
1063,-0.185321,0.501835,-0.06422,0.84393,1.323474,0.627685,27.159157,-21.381267,-37.928944,
1064,-0.187156,0.498165,-0.06422,0.823182,1.338438,0.689011,20.109489,-25.913197,-21.248926,
1065,-0.187156,0.498165,-0.06422,0.797115,1.319198,0.735073,12.115669,-29.312144,-3.184151,
1066,-0.19633,0.49633,-0.066972,0.762004,1.277244,0.78167,4.184792,-30.319239,15.887719,
1067,-0.19633,0.49633,-0.066972,0.716253,1.216585,0.793454,-2.801932,-31.326335,33.88955,
1068,-0.19633,0.49633,-0.066972,0.674492,1.139358,0.811664,-8.907448,-32.396373,51.136059,
1069,-0.19633,0.493578,-0.068807,0.637518,1.071483,0.791579,-13.250548,-33.718186,66.242491,
1070,-0.19633,0.493578,-0.068807,0.605599,1.014298,0.77685,-15.705343,-34.788225,79.271788,
1071,-0.19633,0.493578,-0.068807,0.573148,0.949363,0.778457,-17.782477,-36.110038,90.412782,
1072,-0.19633,0.493578,-0.06422,0.521279,0.89672,0.775779,-18.223081,-39.005437,98.784263,
1073,-0.19633,0.493578,-0.06422,0.47074,0.84568,0.796399,-18.348968,-42.152611,105.078609,
1074,-0.193578,0.500917,-0.06422,0.425255,0.768988,0.825322,-17.65659,-44.355632,110.239973,
1075,-0.193578,0.500917,-0.06422,0.363545,0.695234,0.880757,-16.02006,-45.866275,114.331298,
1076,-0.193578,0.500917,-0.06422,0.295983,0.611326,0.891201,-13.565265,-48.195183,117.226698,
1077,-0.188073,0.50367,-0.057798,0.232676,0.531961,0.91691,-10.795752,-49.9576,118.926171,
1078,-0.188073,0.50367,-0.057798,0.155006,0.455269,0.940744,-8.21507,-50.649978,118.737341,
1079,-0.179817,0.506422,-0.056881,0.091167,0.380446,0.977701,-6.38971,-50.964696,117.730246,
1080,-0.179817,0.506422,-0.056881,0.031851,0.30696,0.987342,-4.690236,-51.657074,115.149564,
1081,-0.179817,0.506422,-0.056881,-0.024008,0.240689,1.029386,-1.983667,-52.853,111.247069,
1082,-0.179817,0.511927,-0.052294,-0.073217,0.172013,1.045722,2.674149,-52.915943,106.274535,
1083,-0.179817,0.511927,-0.052294,-0.118968,0.100932,1.070628,8.527891,-52.223565,99.917245,
1084,-0.179817,0.511927,-0.052294,-0.176954,0.034928,1.082947,14.570464,-50.838809,93.371125,
1085,-0.172477,0.513761,-0.048624,-0.239729,-0.019585,1.093659,19.165337,-50.083487,86.006739,
1086,-0.172477,0.513761,-0.048624,-0.283884,-0.064212,1.128741,22.753115,-48.824618,77.761145,
1087,-0.166972,0.514679,-0.046789,-0.322985,-0.121932,1.152307,26.340892,-46.68454,68.256682,
1088,-0.166972,0.514679,-0.046789,-0.360756,-0.162549,1.166233,29.425122,-43.915028,59.381653,
1089,-0.166972,0.514679,-0.046789,-0.397729,-0.208779,1.195959,31.124596,-39.446042,51.073116,
1090,-0.166055,0.516514,-0.045872,-0.43284,-0.251267,1.208277,31.124596,-34.221734,42.827522,
1091,-0.166055,0.516514,-0.045872,-0.453854,-0.292687,1.219525,29.551009,-28.934483,34.330154,
1092,-0.166055,0.516514,-0.045872,-0.466887,-0.324753,1.220061,26.907383,-23.773119,26.08456,
1093,-0.161468,0.514679,-0.048624,-0.471941,-0.349872,1.221132,23.94904,-17.415829,17.524249,
1094,-0.161468,0.514679,-0.048624,-0.469281,-0.377396,1.206403,20.48715,-10.680878,8.712164,
1095,-0.163303,0.514679,-0.051376,-0.465025,-0.401981,1.206135,16.962316,-4.197701,-0.666413,
1096,-0.163303,0.514679,-0.051376,-0.448268,-0.408661,1.210152,13.689256,3.040798,-9.478498,
1097,-0.163303,0.514679,-0.051376,-0.427786,-0.417212,1.186318,10.353252,9.964579,-17.849979,
1098,-0.16422,0.513761,-0.047706,-0.403847,-0.413204,1.166501,8.087287,16.88836,-25.654968,
1099,-0.16422,0.513761,-0.047706,-0.383897,-0.404118,1.160073,6.387814,24.063915,-32.57875,
1100,-0.16422,0.511009,-0.049541,-0.357298,-0.389421,1.131954,5.191888,31.05064,-39.817248,
1101,-0.16422,0.511009,-0.049541,-0.324847,-0.37606,1.120439,3.366527,38.037364,-46.363368,
1102,-0.16422,0.511009,-0.049541,-0.297715,-0.353079,1.096069,-0.535968,44.016993,-51.902393,
1103,-0.163303,0.509174,-0.052294,-0.269786,-0.332503,1.053221,-5.067897,50.437227,-56.56021,
1104,-0.163303,0.509174,-0.052294,-0.224567,-0.305246,1.031261,-9.599827,56.920404,-60.903309,
1105,-0.163303,0.509174,-0.052294,-0.20382,-0.275317,1.005016,-14.068813,62.396485,-65.561125,
1106,-0.166972,0.510092,-0.051376,-0.159665,-0.254741,0.964846,-16.145947,66.739584,-70.030111,
1107,-0.166972,0.510092,-0.051376,-0.137055,-0.219468,0.9145,-17.215986,71.334457,-74.436154,
1108,-0.166055,0.511927,-0.054128,-0.11684,-0.174574,0.860404,-17.84542,75.111065,-79.408688,
1109,-0.166055,0.511927,-0.054128,-0.093698,-0.115251,0.83041,-19.733724,76.432878,-84.192391,
1110,-0.166055,0.511927,-0.054128,-0.061513,-0.043903,0.800416,-21.936746,77.502917,-88.661377,
1111,-0.170642,0.508257,-0.057798,-0.024274,0.02317,0.807111,-25.020976,78.132352,-92.752702,
1112,-0.170642,0.508257,-0.057798,0.002858,0.101199,0.787562,-28.797583,79.328278,-95.459271,
1113,-0.170642,0.508257,-0.057798,0.035841,0.16747,0.788633,-33.203626,79.831825,-97.725236,
1114,-0.16789,0.509174,-0.058716,0.070686,0.238284,0.770958,-35.595478,78.82473,-99.550597,
1115,-0.16789,0.509174,-0.058716,0.108191,0.314977,0.766673,-36.099025,77.062313,-101.879505,
1116,-0.17156,0.509174,-0.06055,0.142504,0.38205,0.755961,-36.161969,74.796348,-103.264261,
1117,-0.17156,0.509174,-0.06055,0.183733,0.440571,0.762389,-36.602573,72.46744,-104.397244,
1118,-0.17156,0.509174,-0.06055,0.226824,0.493749,0.771226,-36.791404,70.264419,-104.271357,
1119,-0.172477,0.508257,-0.059633,0.256615,0.534366,0.767745,-35.721365,67.494906,-102.949544,
1120,-0.172477,0.508257,-0.059633,0.307154,0.578191,0.764263,-33.958948,65.858376,-101.187127,
1121,-0.175229,0.509174,-0.057798,0.328966,0.620946,0.751944,-32.133587,64.599507,-99.361766,
1122,-0.175229,0.509174,-0.057798,0.358757,0.646867,0.727842,-30.874718,62.900033,-97.284632,
1123,-0.175229,0.509174,-0.057798,0.38509,0.68508,0.718201,-29.175244,58.997538,-95.962819,
1124,-0.178899,0.508257,-0.059633,0.421,0.694967,0.710971,-26.531619,55.598591,-93.633911,
1125,-0.178899,0.508257,-0.059633,0.455845,0.716612,0.683923,-24.706258,52.954966,-91.242059,
1126,-0.178899,0.508257,-0.059633,0.476326,0.747877,0.664641,-25.902184,49.618962,-88.220773,
1127,-0.183486,0.507339,-0.06055,0.505852,0.77647,0.654197,-27.790488,44.898202,-85.136543,
1128,-0.183486,0.507339,-0.06055,0.531387,0.789029,0.659553,-28.294036,40.806877,-81.045218,
1129,-0.188073,0.505505,-0.06055,0.568094,0.808804,0.659821,-27.349884,36.086117,-77.142723,
1130,-0.188073,0.505505,-0.06055,0.587512,0.817355,0.651519,-25.587467,31.617131,-72.610794,
1131,-0.188073,0.505505,-0.06055,0.606131,0.830716,0.661963,-23.762106,26.644597,-67.890034,
1132,-0.193578,0.506422,-0.06422,0.616505,0.838733,0.651251,-22.629124,21.672063,-62.854556,
1133,-0.193578,0.506422,-0.06422,0.630603,0.840603,0.64777,-22.251463,16.447756,-57.315531,
1134,-0.193578,0.506422,-0.06422,0.643636,0.835526,0.661428,-21.999689,11.349335,-50.958241,
1135,-0.193578,0.507339,-0.062385,0.655606,0.831785,0.676157,-20.363159,6.439745,-44.600951,
1136,-0.193578,0.507339,-0.062385,0.66731,0.822966,0.69651,-18.223081,2.096646,-37.866001,
1137,-0.198165,0.507339,-0.062385,0.67662,0.820294,0.694635,-15.579456,-2.561171,-31.193993,
1138,-0.198165,0.507339,-0.062385,0.675556,0.816019,0.697313,-14.131756,-6.023061,-23.829608,
1139,-0.198165,0.507339,-0.062385,0.680343,0.806131,0.709364,-13.754095,-9.484952,-16.339336,
1140,-0.195413,0.509174,-0.058716,0.685929,0.78128,0.697313,-15.516512,-13.009786,-9.415554,
1141,-0.195413,0.509174,-0.058716,0.676886,0.756161,0.694635,-19.670781,-15.527525,-2.932377,
1142,-0.199083,0.508257,-0.062385,0.679279,0.737455,0.695438,-22.692067,-19.555907,3.613743,
1143,-0.199083,0.508257,-0.062385,0.690717,0.716345,0.701062,-23.573276,-23.710175,9.656316,
1144,-0.199083,0.508257,-0.062385,0.677949,0.698174,0.686333,-22.18852,-27.172066,15.00651,
1145,-0.201835,0.509174,-0.055046,0.668906,0.679201,0.670801,-22.37735,-31.389278,20.986139,
1146,-0.201835,0.509174,-0.055046,0.658,0.665573,0.660624,-22.18852,-35.291773,25.89573,
1147,-0.201835,0.509174,-0.055046,0.652946,0.656754,0.677228,-23.699163,-39.634872,30.742377,
1148,-0.205505,0.509174,-0.052294,0.628209,0.6466,0.671872,-24.769202,-43.285593,35.148419,
1149,-0.205505,0.509174,-0.052294,0.627943,0.634842,0.691689,-26.216901,-48.069296,39.743292,
1150,-0.200917,0.512844,-0.052294,0.618101,0.635376,0.689011,-26.153958,-53.23066,42.890465,
1151,-0.200917,0.512844,-0.052294,0.594161,0.618007,0.714184,-25.524523,-57.133155,45.597034,
1152,-0.200917,0.512844,-0.052294,0.56969,0.619343,0.736412,-24.517428,-61.224481,48.114773,
1153,-0.20367,0.516514,-0.044954,0.536441,0.609189,0.762389,-23.195615,-64.30871,50.947229,
1154,-0.20367,0.516514,-0.044954,0.510905,0.609189,0.796399,-20.489046,-67.329997,52.898476,
1155,-0.20367,0.516514,-0.044954,0.469144,0.609189,0.847014,-16.20889,-68.903583,54.849724,
1156,-0.202752,0.519266,-0.040367,0.427383,0.5985,0.878614,-11.991678,-69.973622,56.989802,
1157,-0.202752,0.519266,-0.040367,0.389346,0.577656,0.904055,-8.02624,-70.099509,58.752219,
1158,-0.202752,0.519266,-0.040367,0.344127,0.558416,0.924944,-4.060802,-68.903583,60.199918,
1159,-0.202752,0.519266,-0.040367,0.291461,0.541849,0.937531,-1.291289,-67.770601,61.081127,
1160,-0.202752,0.519266,-0.040367,0.263265,0.516195,0.947975,0.534071,-67.141166,62.088222,
1161,-0.201835,0.524771,-0.03578,0.23241,0.49268,0.966453,2.485319,-66.008184,63.284148,
1162,-0.201835,0.524771,-0.03578,0.196767,0.475577,0.953866,4.68834,-64.371654,63.535922,
1163,-0.20367,0.524771,-0.03211,0.16139,0.447252,0.959758,5.821322,-63.805163,63.347092,
1164,-0.20367,0.524771,-0.03211,0.122289,0.425072,0.96806,6.576644,-63.490445,63.158261,
1165,-0.20367,0.524771,-0.03211,0.091699,0.408772,0.97047,8.213174,-64.434597,62.7806,
1166,-0.199083,0.527523,-0.029358,0.057918,0.390868,0.974487,9.975591,-64.812258,62.025279,
1167,-0.199083,0.527523,-0.029358,0.027595,0.379645,0.982789,12.367443,-64.812258,59.822258,
1168,-0.199083,0.527523,-0.029358,-0.014166,0.362542,1.007159,16.521712,-64.812258,57.933954,
1169,-0.197248,0.527523,-0.023853,-0.045819,0.34063,1.028315,21.557189,-63.112785,54.78678,
1170,-0.197248,0.527523,-0.023853,-0.083058,0.312572,1.077591,24.893192,-61.602141,51.828437,
1171,-0.197248,0.529358,-0.024771,-0.122691,0.289056,1.097943,28.103309,-58.517912,49.751303,
1172,-0.197248,0.529358,-0.024771,-0.16924,0.260196,1.116422,29.802783,-55.370738,47.044734,
1173,-0.197248,0.529358,-0.024771,-0.199564,0.232405,1.140256,28.543913,-52.412395,44.464052,
1174,-0.195413,0.530275,-0.024771,-0.224035,0.211027,1.151236,26.592666,-48.950505,42.009257,
1175,-0.195413,0.530275,-0.024771,-0.241059,0.171211,1.150165,24.074927,-44.355632,38.484423,
1176,-0.195413,0.530275,-0.024771,-0.279628,0.147428,1.171321,20.046546,-39.068381,34.456041,
1177,-0.195413,0.52844,-0.023853,-0.295321,0.123913,1.169446,16.395825,-34.977056,29.546451,
1178,-0.195413,0.52844,-0.023853,-0.314207,0.102268,1.157931,15.892277,-30.571013,23.944482,
1179,-0.195413,0.52844,-0.023853,-0.341338,0.091312,1.175606,15.011068,-26.039083,17.524249,
1180,-0.195413,0.52844,-0.023853,-0.355436,0.072072,1.182569,15.325786,-22.766023,10.726355,
1181,-0.195413,0.52844,-0.023853,-0.356234,0.056038,1.186586,18.347072,-19.681793,3.487856,
1182,-0.194495,0.52844,-0.022018,-0.357032,0.053901,1.181765,21.431302,-15.968129,-3.121208,
1183,-0.194495,0.52844,-0.022018,-0.365278,0.057909,1.178016,24.767306,-13.324503,-10.359706,
1184,-0.194495,0.52844,-0.023853,-0.351446,0.068598,1.157931,28.29214,-9.422009,-16.591109,
1185,-0.194495,0.52844,-0.023853,-0.345062,0.080623,1.149361,30.495161,-6.337779,-22.885456,
1186,-0.194495,0.52844,-0.023853,-0.330433,0.092915,1.141059,31.124596,-2.875888,-28.865085,
1187,-0.192661,0.527523,-0.026606,-0.318197,0.110017,1.146148,30.495161,1.404267,-34.655884,
1188,-0.192661,0.527523,-0.026606,-0.295587,0.122042,1.133561,28.355083,5.495593,-39.565474,
1189,-0.192661,0.527523,-0.026606,-0.27218,0.130861,1.112137,26.781496,8.579822,-44.223291,
1190,-0.2,0.525688,-0.02844,-0.247975,0.142886,1.083214,25.963231,12.230543,-48.692277,
1191,-0.2,0.525688,-0.02844,-0.221109,0.153307,1.086696,25.39674,15.44066,-53.035376,
1192,-0.199083,0.522018,-0.027523,-0.193712,0.170142,1.070896,24.389645,18.399003,-56.623153,
1193,-0.199083,0.522018,-0.027523,-0.165516,0.194192,1.0484,24.074927,21.357346,-60.273874,
1194,-0.199083,0.522018,-0.027523,-0.137587,0.204614,1.039027,23.94904,24.126858,-63.861652,
1195,-0.202752,0.516514,-0.033028,-0.116042,0.228664,1.028851,24.389645,26.896371,-65.749956,
1196,-0.202752,0.516514,-0.033028,-0.08891,0.256188,1.025102,24.263758,29.099392,-68.330638,
1197,-0.207339,0.512844,-0.03211,-0.057789,0.273825,1.004749,23.319606,30.924753,-69.841281,
1198,-0.207339,0.512844,-0.03211,-0.040233,0.307762,0.987877,22.501341,33.253661,-70.91132,
1199,-0.207339,0.512844,-0.03211,-0.010176,0.341966,0.992965,21.93485,34.701361,-71.792528,
1200,-0.211009,0.509174,-0.03945,0.019083,0.373499,0.98145,21.305415,36.652608,-72.35902,
1201,-0.211009,0.509174,-0.03945,0.043289,0.40797,0.977433,19.794772,38.603855,-72.044302,
1202,-0.211009,0.509174,-0.03945,0.072814,0.431486,0.985467,18.221185,40.492159,-71.037207,
1203,-0.213761,0.505505,-0.044037,0.096487,0.455803,0.962436,16.144051,41.562198,-69.526564,
1204,-0.213761,0.505505,-0.044037,0.113777,0.488404,0.975826,13.94103,42.821068,-67.952977,
1205,-0.217431,0.502752,-0.047706,0.14144,0.502032,0.949849,11.675065,43.76522,-65.687012,
1206,-0.217431,0.502752,-0.047706,0.170434,0.508713,0.959758,9.4091,44.331711,-63.295161,
1207,-0.217431,0.502752,-0.047706,0.189053,0.52341,0.956009,7.77257,45.716467,-59.959157,
1208,-0.219266,0.499083,-0.046789,0.21645,0.515394,0.939405,5.632492,46.723562,-56.182549,
1209,-0.219266,0.499083,-0.046789,0.22044,0.52635,0.925747,1.667054,47.667714,-53.098319,
1210,-0.219266,0.499083,-0.046789,0.247572,0.529824,0.917981,-0.976572,47.604771,-48.944051,
1211,-0.222936,0.494495,-0.054128,0.270181,0.53303,0.919588,-3.11665,48.234206,-44.978612,
1212,-0.222936,0.494495,-0.054128,0.280555,0.530091,0.903788,-5.508501,48.171262,-41.516722,
1213,-0.223853,0.494495,-0.055963,0.306356,0.520471,0.903252,-8.655675,47.164167,-37.991888,
1214,-0.223853,0.494495,-0.055963,0.324976,0.517264,0.881025,-12.306396,47.101223,-34.026449,
1215,-0.223853,0.494495,-0.055963,0.319656,0.530892,0.861475,-14.194699,47.101223,-30.753389,
1216,-0.223853,0.493578,-0.055963,0.341733,0.529556,0.869777,-17.090099,46.345902,-29.431576,
1217,-0.223853,0.493578,-0.055963,0.395996,0.512989,0.855851,-17.090099,40.932764,-26.850894,
1218,-0.222018,0.491743,-0.056881,0.414616,0.499895,0.828268,-15.705343,37.722647,-23.829608,
1219,-0.222018,0.491743,-0.056881,0.435895,0.482258,0.826393,-13.376434,37.219099,-21.815417,
1220,-0.222018,0.491743,-0.056881,0.446801,0.469164,0.811932,-11.236357,36.086117,-19.549452,
1221,-0.225688,0.494495,-0.057798,0.458771,0.459277,0.812467,-9.66277,33.946039,-17.787035,
1222,-0.225688,0.494495,-0.057798,0.478454,0.455536,0.788633,-7.711523,30.735922,-16.213449,
1223,-0.225688,0.494495,-0.057798,0.485636,0.456605,0.765067,-4.75318,28.092297,-14.702805,
1224,-0.221101,0.492661,-0.06055,0.49867,0.452596,0.775243,-3.242537,25.322784,-13.947484,
1225,-0.221101,0.492661,-0.06055,0.506118,0.453665,0.77926,-1.354233,24.000971,-12.940388,
1226,-0.222018,0.491743,-0.062385,0.511437,0.46382,0.790508,-0.661854,22.238554,-10.989141,
1227,-0.222018,0.491743,-0.062385,0.520481,0.473974,0.776582,-0.535968,19.720816,-8.660233,
1228,-0.222018,0.491743,-0.062385,0.527397,0.483594,0.774975,-0.473024,17.391908,-6.583098,
1229,-0.219266,0.489908,-0.062385,0.532185,0.490275,0.766673,-0.22125,15.818321,-4.128303,
1230,-0.219266,0.489908,-0.062385,0.538303,0.491076,0.759978,0.408184,13.426469,-1.862338,
1231,-0.219266,0.489908,-0.062385,0.534313,0.509247,0.754622,1.22645,10.656957,0.529513,
1232,-0.220183,0.491743,-0.063303,0.544687,0.510584,0.735073,1.667054,7.132123,2.921365,
1233,-0.220183,0.491743,-0.063303,0.534313,0.517264,0.708293,1.792941,3.229628,4.494952,
1234,-0.219266,0.491743,-0.063303,0.546549,0.526617,0.698116,3.429471,-1.050528,7.264464,
1235,-0.219266,0.491743,-0.063303,0.548677,0.519135,0.689011,6.13604,-5.204796,9.278655,
1236,-0.219266,0.491743,-0.063303,0.529791,0.536504,0.675085,7.143135,-8.918461,11.859337,
1237,-0.216514,0.490826,-0.062385,0.532717,0.527953,0.663034,8.276118,-14.772203,14.754736,
1238,-0.216514,0.490826,-0.062385,0.532983,0.522609,0.656875,10.353252,-20.877719,17.272475,
1239,-0.216514,0.493578,-0.06422,0.518885,0.517799,0.635183,13.311595,-25.850253,19.664327,
1240,-0.216514,0.493578,-0.06422,0.5,0.513256,0.638397,16.144051,-31.074561,22.119122,
1241,-0.216514,0.493578,-0.06422,0.473932,0.504972,0.630631,19.291224,-36.361812,25.266295,
1242,-0.218349,0.490826,-0.061468,0.448131,0.507377,0.631702,22.501341,-41.586119,28.413468,
1243,-0.218349,0.490826,-0.061468,0.413286,0.494817,0.628756,24.704362,-46.999257,30.931207,
1244,-0.218349,0.490826,-0.061468,0.381101,0.476379,0.641878,26.466779,-52.160622,33.952493,
1245,-0.217431,0.490826,-0.06422,0.338808,0.458742,0.635451,26.152062,-58.140251,37.477327,
1246,-0.217431,0.490826,-0.06422,0.298111,0.438166,0.667587,25.144966,-62.735124,41.316879,
1247,-0.219266,0.488073,-0.065138,0.254754,0.428546,0.681781,24.578475,-66.763505,43.5199,
1248,-0.219266,0.488073,-0.065138,0.208471,0.41572,0.732127,24.893192,-69.344188,45.974695,
1249,-0.219266,0.488073,-0.065138,0.161656,0.389799,0.756229,24.515532,-70.854831,47.925943,
1250,-0.222018,0.493578,-0.062385,0.116437,0.358534,0.792382,24.074927,-73.120795,49.940133,
1251,-0.222018,0.493578,-0.062385,0.063504,0.327804,0.823983,23.319606,-75.260873,52.835533,
1252,-0.222018,0.493578,-0.062385,0.023073,0.303754,0.833624,21.620132,-74.631439,54.849724,
1253,-0.223853,0.489908,-0.059633,-0.031456,0.257524,0.872991,18.158242,-72.869022,56.800971,
1254,-0.223853,0.489908,-0.059633,-0.087314,0.222518,0.889059,11.423291,-71.736039,57.996897,
1255,-0.222018,0.488991,-0.058716,-0.123223,0.200071,0.918784,4.940114,-71.547209,59.759314,
1256,-0.222018,0.488991,-0.058716,-0.145301,0.180831,0.94369,0.471128,-71.484265,60.325805,
1257,-0.222018,0.488991,-0.058716,-0.175624,0.161324,0.950117,-2.172498,-69.281244,59.003992,
1258,-0.222018,0.492661,-0.054128,-0.207011,0.14636,0.987609,-4.690236,-66.448788,56.675084,
1259,-0.222018,0.492661,-0.054128,-0.221641,0.11937,1.007159,-6.641484,-63.805163,53.213194,
1260,-0.222018,0.493578,-0.053211,-0.245847,0.09826,1.030993,-7.270918,-61.224481,49.940133,
1261,-0.222018,0.493578,-0.053211,-0.268722,0.086235,1.043848,-7.019144,-56.818438,46.855904,
1262,-0.222018,0.493578,-0.053211,-0.2908,0.073675,1.076519,-7.711523,-52.664169,42.764578,
1263,-0.222018,0.495413,-0.053211,-0.309419,0.065926,1.104371,-8.21507,-48.446957,37.917932,
1264,-0.222018,0.495413,-0.053211,-0.322453,0.056306,1.101425,-8.278014,-44.481519,32.44185,
1265,-0.222018,0.495413,-0.053211,-0.328039,0.051763,1.128741,-9.159222,-40.51608,26.839882,
1266,-0.222018,0.498165,-0.045872,-0.332029,0.044815,1.129276,-9.410996,-35.795321,21.489687,
1267,-0.222018,0.498165,-0.045872,-0.331497,0.048556,1.13731,-10.606922,-31.389278,15.950662,
1268,-0.222018,0.5,-0.044037,-0.322985,0.046418,1.149629,-11.2993,-27.8015,10.411637,
1269,-0.222018,0.5,-0.044037,-0.322187,0.056573,1.156056,-12.432282,-24.150779,5.250273,
1270,-0.222018,0.5,-0.044037,-0.301439,0.069667,1.153646,-13.187604,-20.248285,-0.603469,
1271,-0.222936,0.500917,-0.040367,-0.291863,0.085166,1.154449,-13.942926,-16.408733,-6.142494,
1272,-0.222936,0.500917,-0.040367,-0.283086,0.101199,1.158199,-13.754095,-12.695069,-11.492689,
1273,-0.222936,0.500917,-0.040367,-0.268988,0.106543,1.146683,-13.942926,-9.170235,-16.024618,
1274,-0.223853,0.501835,-0.041284,-0.255156,0.123913,1.15686,-13.691152,-6.086005,-20.745378,
1275,-0.223853,0.501835,-0.041284,-0.238665,0.13193,1.134364,-13.942926,-3.190606,-24.77376,
1276,-0.225688,0.502752,-0.037615,-0.226961,0.144756,1.140256,-14.005869,-0.106376,-27.795046,
1277,-0.225688,0.502752,-0.037615,-0.203554,0.162393,1.13972,-15.012965,2.663137,-31.256937,
1278,-0.225688,0.502752,-0.037615,-0.187594,0.171746,1.139988,-15.264738,5.684423,-34.529997,
1279,-0.225688,0.502752,-0.037615,-0.16791,0.194192,1.130347,-15.705343,8.013331,-37.866001,
1280,-0.225688,0.502752,-0.037615,-0.146897,0.207553,1.1349,-15.516512,9.461031,-40.887287,
1281,-0.227523,0.502752,-0.036697,-0.121362,0.22038,1.113476,-13.187604,11.852883,-43.656799,
1282,-0.227523,0.502752,-0.036697,-0.107264,0.238017,1.109459,-11.425187,14.874169,-46.489255,
1283,-0.227523,0.502752,-0.036697,-0.089442,0.263403,1.111869,-11.11047,17.014247,-48.944051,
