,,,,,,,,,,
,,,,,,,,,,
,,,,,,,,,,
,,,,,,,,,,
,,,,,,,,,,
,,,,,,,,,,
,,,,,,,,,,
,,,,,,,,,,
,,,,,,,,,,
index,Geomagnetism_X,Geomagnetism_Y,Geomagnetism_Z,Acceleration_X,Acceleration_Y,Acceleration_Z,Angular_velocity_X,Angular_velocity_Y,Angular_velocity_Z, 
1,0.026606,0.462385,-0.09633,0.475893,0.125772,1.263778,1.97107,-15.245223,-4.227912,
2,0.024771,0.46055,-0.093578,0.472954,0.128168,1.258364,7.573038,-15.37111,-2.843156,
3,0.024771,0.46055,-0.093578,0.479902,0.118049,1.281914,12.797346,-15.056393,-1.269569,
4,0.024771,0.46055,-0.093578,0.476161,0.109262,1.290035,17.95871,-15.18228,-0.388361,
5,0.024771,0.46055,-0.093578,0.482039,0.106333,1.324954,20.979997,-15.811714,0.933452,
6,0.024771,0.46055,-0.093578,0.487651,0.104469,1.334428,22.553583,-16.944697,1.814661,
7,0.024771,0.46055,-0.093578,0.503684,0.102073,1.341737,23.308905,-18.518283,2.318208,
8,0.052294,0.448624,-0.095413,0.512235,0.095682,1.330909,23.371848,-18.707114,1.62583,
9,0.052294,0.448624,-0.095413,0.523993,0.090623,1.345527,20.665279,-18.266509,-0.451304,
10,0.051376,0.447706,-0.1,0.545103,0.061598,1.37422,13.04912,-18.707114,-2.969043,
11,0.051376,0.447706,-0.1,0.567549,0.039497,1.392627,2.1599,-20.721304,-5.927386,
12,0.051376,0.447706,-0.1,0.587857,0.018727,1.412387,-9.29581,-22.987269,-8.696898,
13,0.052294,0.448624,-0.102752,0.591064,0.015798,1.410763,-22.639825,-26.008556,-11.214637,
14,0.052294,0.448624,-0.102752,0.588659,0.015265,1.380716,-34.72497,-29.659277,-15.054188,
15,0.052294,0.448624,-0.102752,0.583047,0.015798,1.347421,-43.599999,-32.99528,-18.264305,
16,0.048624,0.447706,-0.1,0.568351,0.025916,1.307089,-47.817211,-34.44298,-20.90793,
17,0.048624,0.447706,-0.1,0.555791,0.020591,1.300051,-50.209063,-35.638906,-23.614499,
18,0.043119,0.450459,-0.098165,0.543499,0.001419,1.28002,-54.237445,-37.023662,-26.824616,
19,0.043119,0.450459,-0.098165,0.534948,-0.013227,1.275959,-61.853604,-38.974909,-31.167715,
20,0.043119,0.450459,-0.098165,0.545637,-0.029204,1.271628,-75.260562,-40.9891,-38.469157,
21,0.036697,0.452294,-0.098165,0.536819,-0.037725,1.282456,-96.220736,-42.62563,-46.525921,
22,0.036697,0.452294,-0.098165,0.530406,-0.035062,1.281102,-121.398122,-45.898691,-56.470988,
23,0.036697,0.452294,-0.098165,0.52132,-0.002576,1.242935,-145.442526,-48.038768,-66.85666,
24,0.034862,0.455046,-0.095413,0.464136,0.028047,1.053182,-167.598626,-49.234694,-76.109349,
25,0.034862,0.455046,-0.095413,0.489522,0.109529,1.159833,-188.873517,-54.584889,-83.284905,
26,0.022936,0.461468,-0.089908,0.393591,0.171572,1.108673,-181.257358,-61.760444,-87.816834,
27,0.022936,0.461468,-0.089908,0.367403,0.186484,1.023947,-175.718333,-53.70368,-89.390421,
28,0.022936,0.461468,-0.089908,0.351103,0.218437,1.028007,-171.31229,-49.612355,-89.01276,
29,0.012844,0.470642,-0.080734,0.352706,0.220834,1.03288,-170.053421,-45.898691,-90.208686,
30,0.012844,0.470642,-0.080734,0.348431,0.263971,1.022864,-169.235156,-42.185026,-91.404612,
31,0.012844,0.470642,-0.080734,0.378092,0.300718,1.025301,-167.095078,-39.667288,-92.034046,
32,0.005505,0.481651,-0.07156,0.394392,0.312967,1.025571,-160.360127,-37.967814,-89.956912,
33,0.005505,0.481651,-0.07156,0.425657,0.295659,1.038023,-149.974455,-34.44298,-85.676756,
34,-0.007339,0.484404,-0.061468,0.451042,0.261841,1.002021,-141.036483,-28.08569,-78.186484,
35,-0.007339,0.484404,-0.061468,0.46948,0.252255,0.993088,-133.860928,-19.525379,-66.982547,
36,-0.007339,0.484404,-0.061468,0.439552,0.254918,0.990111,-115.292606,-12.727484,-49.043659,
37,-0.014679,0.495413,-0.055046,0.408822,0.259178,0.956004,-84.072647,-2.278869,-23.173895,
38,-0.014679,0.495413,-0.055046,0.354577,0.283143,0.911611,-34.53614,10.498654,13.144484,
39,-0.014679,0.495413,-0.055046,0.311555,0.330009,0.956545,33.128085,24.346217,61.107405,
40,-0.024771,0.5,-0.046789,0.239674,0.372347,0.980907,122.94841,34.543058,115.175842,
41,-0.024771,0.5,-0.046789,0.228985,0.356637,0.957899,221.20316,41.340952,168.300126,
42,-0.022018,0.5,-0.042202,0.266395,0.308706,0.898076,313.352393,49.523603,215.004178,
43,-0.022018,0.5,-0.042202,0.271472,0.279682,0.916213,386.87036,58.083914,251.385501,
44,-0.022018,0.5,-0.042202,0.2525,0.268232,0.935161,450.757978,60.349879,281.409534,
45,-0.013761,0.494495,-0.055046,0.278955,0.232284,0.920273,507.65887,56.825045,300.544347,
46,-0.013761,0.494495,-0.055046,0.326519,0.17743,0.886437,549.705105,57.139762,309.356432,
47,-0.013761,0.494495,-0.055046,0.355646,0.076776,0.898347,576.393135,60.601653,306.209259,
48,0.000917,0.47156,-0.077982,0.387979,0.000354,0.886437,591.373679,62.5529,296.012418,
49,0.000917,0.47156,-0.077982,0.390918,-0.019884,0.953568,606.417167,60.790483,282.920177,
50,0.025688,0.440367,-0.109174,0.392255,-0.085123,0.824178,618.124652,64.0006,263.030042,
51,0.025688,0.440367,-0.109174,0.398133,-0.115212,0.790342,620.579447,59.46867,246.09825,
52,0.025688,0.440367,-0.109174,0.379963,-0.191368,0.728354,621.838316,47.446468,224.005093,
53,0.041284,0.398165,-0.138532,0.350569,-0.277111,0.708864,616.676952,36.93491,195.23993,
54,0.041284,0.398165,-0.138532,0.324649,-0.361255,0.702097,597.542139,31.899433,161.879893,
55,0.041284,0.398165,-0.138532,0.273877,-0.439542,0.69154,563.804441,27.115729,124.806192,
56,0.049541,0.352294,-0.161468,0.238872,-0.4683,0.702638,518.73692,28.500485,86.914226,
57,0.049541,0.352294,-0.161468,0.249026,-0.491733,0.689645,464.101992,30.514676,52.29532,
58,0.056881,0.307339,-0.176147,0.277886,-0.523154,0.702909,397.256032,20.569609,23.152495,
59,0.056881,0.307339,-0.176147,0.319304,-0.581469,0.768687,314.800093,-2.341813,-1.4584,
60,0.056881,0.307339,-0.176147,0.371946,-0.653365,0.794402,222.713803,-32.617619,-24.306878,
61,0.057798,0.269725,-0.184404,0.40615,-0.729788,0.810914,126.473244,-63.648748,-45.833543,
62,0.057798,0.269725,-0.184404,0.418442,-0.770528,0.850706,31.239781,-95.938746,-65.22013,
63,0.057798,0.269725,-0.184404,0.398133,-0.785973,0.862075,-60.342961,-130.242934,-86.11736,
64,0.056881,0.247706,-0.191743,0.404012,-0.786505,0.831216,-152.366307,-162.721762,-111.987125,
65,0.056881,0.247706,-0.191743,0.437147,-0.792363,0.771393,-249.991622,-192.871682,-143.018253,
66,0.045872,0.245872,-0.190826,0.455318,-0.821388,0.744595,-354.603661,-219.182051,-176.755951,
67,0.045872,0.245872,-0.190826,0.459593,-0.827512,0.715361,-463.621743,-237.057995,-212.444895,
68,0.045872,0.245872,-0.190826,0.450508,-0.798488,0.703992,-569.681482,-249.646688,-248.196784,
69,0.026606,0.266972,-0.192661,0.412029,-0.770262,0.581911,-669.320988,-256.255752,-285.144598,
70,0.026606,0.266972,-0.192661,0.427794,-0.703159,0.676111,-766.253924,-258.332886,-325.239585,
71,0.026606,0.266972,-0.192661,0.366067,-0.609429,0.712925,-841.156648,-261.165342,-363.823929,
72,0,0.305505,-0.184404,0.349767,-0.477886,0.710488,-900.701166,-253.423296,-403.79303,
73,0,0.305505,-0.184404,0.333734,-0.354865,0.663118,-942.306797,-244.42238,-437.908388,
74,-0.030275,0.358716,-0.166972,0.298194,-0.264329,0.633071,-961.25278,-232.96667,-466.484721,
75,-0.030275,0.358716,-0.166972,0.263723,-0.167669,0.623055,-959.61625,-218.867333,-488.703765,
76,-0.030275,0.358716,-0.166972,0.233795,-0.102164,0.661223,-941.299701,-205.963923,-502.362497,
77,-0.066972,0.419266,-0.126606,0.188368,-0.024144,0.643628,-906.366078,-194.067608,-509.663939,
78,-0.066972,0.419266,-0.126606,0.126106,0.007011,0.55403,-856.514854,-181.290085,-508.5939,
79,-0.066972,0.419266,-0.126606,0.089765,0.058136,0.472281,-792.941954,-164.735953,-496.571698,
80,-0.111009,0.463303,-0.072477,0.022426,0.044556,0.326379,-722.445272,-147.111783,-474.541485,
81,-0.111009,0.463303,-0.072477,-0.013915,0.0142,0.257895,-642.947676,-125.899835,-438.348992,
82,-0.152294,0.484404,-0.016514,-0.097287,0.000354,0.194824,-560.051132,-95.246367,-389.316033,
83,-0.152294,0.484404,-0.016514,-0.240248,0.050414,0.194012,-468.908994,-62.012218,-317.245765,
84,-0.152294,0.484404,-0.016514,-0.299036,0.111126,0.486899,-351.708262,-31.988185,-221.634641,
85,-0.190826,0.490826,0.030275,-0.519757,0.123908,0.721857,-160.737788,-42.4368,-84.921435,
86,-0.190826,0.490826,0.030275,-0.664856,0.53824,-0.001426,-20.310917,-20.532474,36.559453,
87,-0.190826,0.490826,0.030275,-0.662718,0.991982,0.329628,88.014787,19.940174,167.293031,
88,-0.210092,0.486239,0.06055,-0.531248,1.148555,0.519111,266.963059,39.704422,314.706627,
89,-0.210092,0.486239,0.06055,-0.437187,1.049499,0.368336,443.456536,71.553816,450.853342,
90,-0.212844,0.490826,0.063303,-0.350342,1.070268,0.524795,600.815199,99.563658,550.17813,
91,-0.212844,0.490826,0.063303,-0.287278,1.101956,0.751904,742.752713,112.718842,612.932765,
92,-0.212844,0.490826,0.063303,-0.164091,0.987721,0.890768,852.274343,108.312799,643.019742,
93,-0.179817,0.501835,0.037615,-0.080987,0.969082,1.031256,950.654979,113.725937,648.873484,
94,-0.179817,0.501835,0.037615,0.012539,0.947247,0.990382,1044.75546,132.48309,632.256409,
95,-0.179817,0.501835,0.037615,0.055294,0.937128,0.827426,1113.112063,153.380321,603.93185,
96,-0.134862,0.492661,-0.017431,0.062776,0.809314,0.690999,1144.709683,172.200417,564.781014,
97,-0.134862,0.492661,-0.017431,0.114616,0.572324,0.64823,1144.709683,185.544431,517.510472,
98,-0.087156,0.463303,-0.077982,0.189704,0.302582,0.701556,1117.077502,194.985951,463.567922,
99,-0.087156,0.463303,-0.077982,0.197453,-0.003108,0.902137,1072.135867,199.832598,403.897517,
100,-0.087156,0.463303,-0.077982,0.20066,-0.226784,1.288682,1043.685421,225.009984,345.423038,
101,-0.048624,0.400917,-0.138532,0.205737,-0.372173,1.098928,1024.802381,276.812456,282.857233,
102,-0.048624,0.400917,-0.138532,0.279222,-0.497591,0.95844,958.522912,242.822985,227.278153,
103,-0.048624,0.400917,-0.138532,0.310486,-0.666679,0.897535,840.378028,155.646285,172.265565,
104,-0.019266,0.32844,-0.177064,0.394927,-0.849614,0.945988,668.542368,51.789568,109.196212,
105,-0.019266,0.32844,-0.177064,0.426191,-0.997666,0.960606,464.353766,-52.507754,48.644599,
106,0.00367,0.251376,-0.19633,0.447568,-1.012577,0.894287,245.751111,-133.26422,-9.011615,
107,0.00367,0.251376,-0.19633,0.435544,-1.009116,0.800357,22.553583,-184.437258,-62.198844,
108,0.00367,0.251376,-0.19633,0.402676,-1.034945,0.683419,-205.553535,-223.399263,-117.840867,
109,0.001835,0.210092,-0.200917,0.366334,-1.054916,0.55809,-430.891141,-255.878091,-178.958972,
110,0.001835,0.210092,-0.200917,0.341483,-1.022696,0.496914,-644.269489,-277.971247,-248.385614,
111,0.001835,0.210092,-0.200917,0.281894,-0.920178,0.490147,-838.072418,-287.979258,-323.980716,
112,-0.016514,0.216514,-0.200917,0.232993,-0.752155,0.425723,-1000.466559,-294.399492,-403.415369,
113,-0.016514,0.216514,-0.200917,0.183024,-0.563096,0.368878,-1131.326023,-293.140622,-481.52821,
114,-0.040367,0.266055,-0.193578,0.180084,-0.398268,0.27549,-1226.685373,-281.810799,-559.200446,
115,-0.040367,0.266055,-0.193578,0.170999,-0.224387,0.195095,-1282.453283,-261.417116,-632.718413,
116,-0.040367,0.266055,-0.193578,0.190238,-0.131455,0.203216,-1298.18915,-237.057995,-696.4172,
117,-0.078899,0.342202,-0.168807,0.178748,-0.063288,0.235428,-1267.158021,-209.803474,-741.673552,
118,-0.078899,0.342202,-0.168807,0.172602,-0.086188,0.25221,-1196.598397,-183.93371,-763.011387,
119,-0.078899,0.342202,-0.168807,0.208409,-0.096573,0.313116,-1097.399495,-156.301529,-761.4378,
120,-0.122936,0.415596,-0.116514,0.19585,-0.087519,0.477695,-975.855664,-116.143598,-727.888933,
121,-0.122936,0.415596,-0.116514,0.070525,-0.0316,0.504223,-826.364934,-50.493564,-662.99422,
122,-0.178899,0.453211,-0.052294,-0.081788,-0.079531,0.717797,-649.179079,18.240701,-560.018711,
123,-0.178899,0.453211,-0.052294,-0.347402,-0.390014,1.764013,-369.269489,-37.71604,-397.43574,
124,-0.178899,0.453211,-0.052294,-0.498647,-0.255009,0.86018,-138.015197,-132.320069,-220.186942,
125,-0.219266,0.455963,0.000917,-0.648556,0.095682,0.050547,-31.326023,-80.265823,-19.586118,
126,-0.219266,0.455963,0.000917,-0.774682,0.603745,0.160176,74.922546,-13.168089,147.151122,
127,-0.219266,0.455963,0.000917,-0.55984,0.700139,0.637402,246.128772,0.742417,291.543431,
128,-0.243119,0.452294,0.022936,-0.386683,0.498564,0.492583,422.685192,18.933079,429.326677,
129,-0.243119,0.452294,0.022936,-0.35141,0.556347,0.528855,562.797346,53.992589,518.454624,
130,-0.23578,0.455046,0.018349,-0.303044,0.625314,0.830133,670.178898,67.903095,557.227799,
131,-0.23578,0.455046,0.018349,-0.175849,0.604544,1.027737,751.501855,59.09101,568.179962,
132,-0.23578,0.455046,0.018349,-0.093012,0.603212,0.871549,788.6385,54.496137,560.249085,
133,-0.20367,0.458716,-0.007339,-0.041172,0.579247,0.796297,780.83351,63.811769,528.399691,
134,-0.20367,0.458716,-0.007339,0.000514,0.562738,0.778702,754.900802,83.953678,484.59104,
135,-0.20367,0.458716,-0.007339,0.016013,0.481522,0.756776,718.519479,100.885471,443.237183,
136,-0.168807,0.454128,-0.055046,0.068922,0.363028,0.767875,684.215291,102.14434,406.415256,
137,-0.168807,0.454128,-0.055046,0.095911,0.246397,0.839607,654.946579,99.878375,372.174011,
138,-0.138532,0.429358,-0.094495,0.157104,0.144145,0.918378,626.244359,98.178901,338.5622,
139,-0.138532,0.429358,-0.094495,0.211616,0.02565,1.004999,601.696408,88.800325,309.545263,
140,-0.138532,0.429358,-0.094495,0.244751,-0.113348,1.049933,585.519937,74.386272,285.500859,
141,-0.111927,0.4,-0.131193,0.269067,-0.233973,1.085123,573.434792,58.839236,262.337664,
142,-0.111927,0.4,-0.131193,0.276282,-0.356462,1.091349,559.335455,44.236352,236.467899,
143,-0.111927,0.4,-0.131193,0.268533,-0.446731,1.078356,537.871734,27.871051,208.898661,
144,-0.093578,0.366972,-0.154128,0.204401,-0.497058,1.052911,507.47004,10.687485,179.315233,
145,-0.093578,0.366972,-0.154128,0.159776,-0.516497,1.001751,469.13747,-5.111325,147.780557,
146,-0.085321,0.32844,-0.17156,0.100988,-0.516231,0.964125,418.782697,-23.1761,115.553502,
147,-0.085321,0.32844,-0.17156,0.038459,-0.488537,0.884813,353.699154,-44.262161,84.08177,
148,-0.085321,0.32844,-0.17156,-0.026475,-0.5141,0.814433,272.753858,-64.907617,48.078108,
149,-0.077064,0.294495,-0.182569,-0.051059,-0.555108,0.707781,167.952988,-85.867791,4.332399,
150,-0.077064,0.294495,-0.182569,-0.046249,-0.595316,0.649583,41.058962,-105.443209,-43.504634,
151,-0.077064,0.294495,-0.182569,-0.032086,-0.626471,0.646064,-98.990248,-126.025722,-92.915255,
152,-0.083486,0.274312,-0.186239,-0.005899,-0.665348,0.630093,-248.418035,-146.734122,-144.969501,
153,-0.083486,0.274312,-0.186239,0.013875,-0.655229,0.652561,-395.26514,-166.938974,-199.415598,
154,-0.092661,0.270642,-0.188073,0.03071,-0.646708,0.714549,-540.475714,-186.577336,-257.890077,
155,-0.092661,0.270642,-0.188073,0.079076,-0.623808,0.775725,-681.783794,-203.760902,-317.8752,
156,-0.092661,0.270642,-0.188073,0.131451,-0.566824,0.793861,-815.412771,-219.182051,-376.412623,
157,-0.109174,0.290826,-0.179817,0.167258,-0.465105,0.78953,-932.361729,-224.532245,-434.13178,
158,-0.109174,0.290826,-0.179817,0.177412,-0.357794,0.769228,-1025.895719,-222.455111,-489.52203,
159,-0.109174,0.290826,-0.179817,0.199324,-0.268057,0.761107,-1086.195559,-220.62975,-539.058537,
160,-0.133028,0.336697,-0.158716,0.207875,-0.175658,0.785199,-1108.477545,-211.691778,-577.768768,
161,-0.133028,0.336697,-0.158716,0.195048,-0.122668,0.828238,-1093.937605,-194.697043,-600.994907,
162,-0.166055,0.386239,-0.118349,0.214021,-0.090182,0.849894,-1044.652871,-175.562229,-607.289253,
163,-0.166055,0.386239,-0.118349,0.21215,-0.092312,0.892392,-963.455801,-164.735953,-594.763504,
164,-0.166055,0.386239,-0.118349,0.212417,-0.176723,0.851247,-865.767543,-164.987727,-562.91411,
165,-0.205505,0.422018,-0.057798,0.162982,-0.198824,0.877775,-772.233554,-171.911508,-511.048695,
166,-0.205505,0.422018,-0.057798,-0.259221,-0.162078,0.925687,-672.405218,-168.575505,-440.048466,
167,-0.205505,0.422018,-0.057798,-0.064687,-0.133053,1.067528,-553.505012,-225.16168,-381.4481,
168,-0.249541,0.43211,-0.005505,-0.049722,-0.135982,0.882918,-440.899152,-223.902811,-254.113469,
169,-0.249541,0.43211,-0.005505,-0.171039,-0.006836,0.801981,-294.933256,-188.402696,-107.706969,
170,-0.276147,0.425688,0.03578,-0.370383,0.197401,0.688833,-87.471594,-145.349366,59.407931,
171,-0.276147,0.425688,0.03578,-0.519757,0.500162,0.437904,168.70831,-101.477771,240.496281,
172,-0.276147,0.425688,0.03578,-0.589501,0.854049,0.225683,429.294256,-39.226683,418.689231,
173,-0.287156,0.423853,0.062385,-0.514413,1.152549,0.169379,659.100848,51.034246,573.530156,
174,-0.287156,0.423853,0.062385,-0.447341,1.375958,0.274948,840.252141,157.031042,685.443637,
175,-0.287156,0.423853,0.062385,-0.412069,1.467559,0.486357,969.663906,253.08277,743.225739,
176,-0.272477,0.437615,0.058716,-0.719903,1.824641,1.085935,1047.524972,272.658187,716.285935,
177,-0.272477,0.437615,0.058716,-0.197493,1.268914,1.634623,1091.900116,170.123282,631.312257,
178,-0.22844,0.454128,0.009174,-0.230628,0.934465,1.296261,1100.838088,181.51605,598.644599,
179,-0.22844,0.454128,0.009174,-0.152334,0.84606,1.045873,1088.438225,233.255578,536.834116,
180,-0.22844,0.454128,0.009174,0.062241,0.671913,0.924604,1057.784757,230.989613,471.939403,
181,-0.181651,0.437615,-0.061468,0.089498,0.49031,0.933807,1007.618815,210.910648,419.318666,
182,-0.181651,0.437615,-0.061468,0.102324,0.298854,0.992547,955.879287,198.825503,376.076505,
183,-0.181651,0.437615,-0.061468,0.125305,0.085297,1.057242,917.60966,190.642852,344.793603,
184,-0.142202,0.398165,-0.119266,0.132252,-0.215067,1.121937,897.278921,180.25718,316.091383,
185,-0.142202,0.398165,-0.119266,0.115952,-0.466702,1.145757,899.167225,214.93903,280.654212,
186,-0.114679,0.344954,-0.155046,0.231657,-0.68452,0.851788,889.410988,246.788423,247.231232,
187,-0.114679,0.344954,-0.155046,0.286971,-0.902071,0.676111,840.818632,206.001058,219.661994,
188,-0.114679,0.344954,-0.155046,0.277351,-1.117492,0.567564,759.495675,139.406871,189.889735,
189,-0.088991,0.283486,-0.183486,0.264258,-1.334244,0.490688,640.469582,82.883639,146.836405,
190,-0.088991,0.283486,-0.183486,0.257043,-1.494811,0.430054,481.096728,29.570524,97.111067,
191,-0.088991,0.283486,-0.183486,0.218029,-1.566174,0.343433,285.909042,-26.386216,46.000973,
192,-0.073394,0.222936,-0.198165,0.200393,-1.529694,0.250045,60.382606,-79.447558,-3.976138,
193,-0.073394,0.222936,-0.198165,0.157104,-1.439691,0.218374,-168.983382,-126.277496,-49.42132,
194,-0.073394,0.186239,-0.197248,0.098583,-1.304421,0.179124,-379.151613,-158.063946,-97.761902,
195,-0.073394,0.186239,-0.197248,0.032313,-1.20856,0.183185,-564.708948,-172.918604,-156.04755,
196,-0.073394,0.186239,-0.197248,0.004523,-1.089266,0.208359,-731.697962,-182.29718,-217.480373,
197,-0.081651,0.193578,-0.197248,0.020556,-0.981689,0.281445,-873.635476,-193.438173,-276.961947,
198,-0.081651,0.193578,-0.197248,0.019487,-0.876774,0.368878,-986.556053,-201.306107,-335.6882,
199,-0.081651,0.193578,-0.197248,0.012806,-0.743102,0.497455,-1082.481894,-203.886789,-394.918001,
200,-0.097248,0.23945,-0.192661,0.074801,-0.59505,0.529397,-1160.217074,-211.817665,-455.847276,
201,-0.097248,0.23945,-0.192661,0.098049,-0.400665,0.510449,-1206.732295,-222.26628,-515.958285,
202,-0.115596,0.308257,-0.176147,0.109539,-0.253678,0.53075,-1218.62861,-223.084546,-567.949588,
203,-0.115596,0.308257,-0.176147,0.109004,-0.128793,0.645523,-1187.471594,-217.293747,-602.127889,
204,-0.115596,0.308257,-0.176147,0.078809,-0.022813,0.764356,-1122.702768,-204.830941,-618.996738,
205,-0.147706,0.375229,-0.131193,-0.24773,0.172371,0.977118,-1034.64486,-208.733435,-630.011844,
206,-0.147706,0.375229,-0.131193,0.093506,0.091688,1.204768,-953.196016,-280.426042,-638.383325,
207,-0.147706,0.375229,-0.131193,-0.00483,0.123375,1.037211,-889.68606,-361.371339,-618.556134,
208,-0.192661,0.420183,-0.076147,0.141071,0.142814,1.074295,-852.423528,-384.597478,-603.072041,
209,-0.192661,0.420183,-0.076147,0.239941,0.095682,1.093514,-805.341816,-374.526523,-575.25103,
210,-0.23945,0.43211,-0.015596,0.220701,0.087427,1.149006,-749.762736,-354.006953,-540.191519,
211,-0.23945,0.43211,-0.015596,0.161913,0.088759,1.147923,-681.909681,-337.578709,-507.901522,
212,-0.23945,0.43211,-0.015596,0.103927,0.102871,1.056159,-605.559257,-332.291458,-478.381036,
213,-0.282569,0.424771,0.045872,0.04033,0.15453,0.873173,-536.321445,-335.879235,-449.238212,
214,-0.282569,0.424771,0.045872,-0.04705,0.212313,0.644981,-476.46221,-334.809196,-415.500515,
215,-0.282569,0.424771,0.045872,-0.123207,0.244533,0.450626,-425.666833,-317.373857,-376.160849,
216,-0.311009,0.402752,0.09633,-0.197761,0.269563,0.320695,-375.186174,-280.174269,-329.14208,
217,-0.311009,0.402752,0.09633,-0.301975,0.27622,0.259519,-314.571617,-230.134214,-275.514248,
218,-0.330275,0.379817,0.13945,-0.455091,0.263439,0.156116,-239.60595,-182.674841,-210.619535,
219,-0.330275,0.379817,0.13945,-0.611947,0.279149,0.098188,-151.673929,-142.957514,-144.025349,
220,-0.330275,0.379817,0.13945,-0.685699,0.355838,0.005612,-57.132844,-111.548725,-75.228141,
221,-0.342202,0.355046,0.166055,-0.730591,0.425603,-0.087776,34.135181,-86.93783,-4.227912,
222,-0.342202,0.355046,0.166055,-0.912833,0.531849,-0.102393,126.913849,-59.242705,72.689003,
223,-0.342202,0.355046,0.166055,-1.137029,0.642356,-0.029848,234.798948,-25.127347,155.774377,
224,-0.344954,0.349541,0.182569,-1.294152,0.780289,-0.007381,372.33042,15.093527,248.804819,
225,-0.344954,0.349541,0.182569,-1.302436,0.974674,-0.082362,520.688168,52.230172,343.47179,
226,-0.341284,0.354128,0.181651,-1.289342,1.111276,-0.145704,653.750653,96.290598,440.09001,
227,-0.341284,0.354128,0.181651,-1.292014,1.180509,-0.158967,777.875167,158.982289,542.750802,
228,-0.341284,0.354128,0.181651,-1.245251,1.151484,-0.07749,896.334769,221.611037,632.319353,
229,-0.32844,0.381651,0.162385,-1.185929,1.094766,0.0519,997.610804,272.595244,681.85586,
230,-0.32844,0.381651,0.162385,-1.149588,0.976538,0.110098,1075.723645,305.892337,682.800012,
231,-0.32844,0.381651,0.162385,-1.045106,0.909968,0.147724,1114.056215,314.263818,649.628806,
232,-0.299083,0.420183,0.118349,-0.851374,0.818367,0.144205,1126.015474,304.822298,604.876002,
233,-0.299083,0.420183,0.118349,-0.633057,0.741945,0.162883,1113.23795,299.031499,558.864329,
234,-0.258716,0.445872,0.045872,-0.473529,0.537707,0.248962,1074.653606,304.570524,506.369479,
235,-0.258716,0.445872,0.045872,-0.354884,0.32708,0.374021,1021.529321,322.320582,456.014706,
236,-0.258716,0.445872,0.045872,-0.287278,0.038165,0.555924,965.635524,348.253289,402.072157,
237,-0.214679,0.442202,-0.025688,-0.12962,-0.2385,0.715902,910.811766,384.005178,351.025006,
238,-0.214679,0.442202,-0.025688,0.041666,-0.458714,0.843938,856.743329,397.349192,317.098478,
239,-0.214679,0.442202,-0.025688,0.126908,-0.644844,0.962771,796.002885,375.759584,290.97694,
240,-0.174312,0.411009,-0.090826,0.207875,-0.793162,1.028549,729.282812,334.028066,265.044233,
241,-0.174312,0.411009,-0.090826,0.280023,-0.916716,1.082957,650.099932,279.015477,239.678016,
242,-0.13578,0.368807,-0.134862,0.353775,-1.025359,1.160916,557.698925,210.281213,204.996167,
243,-0.13578,0.368807,-0.134862,0.496736,-1.130273,1.174721,454.219868,139.02921,162.19461,
244,-0.13578,0.368807,-0.134862,0.644775,-1.24717,1.157126,343.061709,73.379176,115.049955,
245,-0.105505,0.326606,-0.165138,0.661877,-1.263946,1.11138,226.049807,16.60417,63.37337,
246,-0.105505,0.326606,-0.165138,0.565144,-1.220809,0.983614,91.980225,-39.793174,5.968929,
247,-0.105505,0.326606,-0.165138,0.496202,-1.23146,0.776537,-65.252551,-93.29512,-55.275062,
248,-0.093578,0.3,-0.177982,0.339346,-1.179535,0.679359,-229.597939,-140.376832,-113.057164,
249,-0.093578,0.3,-0.177982,0.172335,-1.107906,0.471469,-389.977889,-180.723593,-170.587491,
250,-0.097248,0.295413,-0.179817,-0.008037,-1.005388,0.311221,-539.342732,-207.663397,-225.348306,
251,-0.097248,0.295413,-0.179817,-0.156876,-0.870916,0.270888,-669.320988,-222.392167,-282.500972,
252,-0.097248,0.295413,-0.179817,-0.292356,-0.72819,0.22054,-765.81332,-231.581913,-339.401865,
253,-0.112844,0.318349,-0.170642,-0.373857,-0.613689,0.134731,-833.91815,-234.729087,-391.707885,
254,-0.112844,0.318349,-0.170642,-0.339386,-0.535669,0.048381,-887.483039,-226.735267,-436.460688,
255,-0.112844,0.318349,-0.170642,-0.252273,-0.507443,0.04405,-931.228747,-211.440004,-467.302986,
256,-0.13945,0.358716,-0.146789,-0.195623,-0.448063,0.274948,-952.818356,-197.592442,-486.4378,
257,-0.13945,0.358716,-0.146789,-0.199097,-0.362054,0.684502,-937.082489,-193.123456,-497.767624,
258,-0.17156,0.397248,-0.104587,-0.182262,-0.312526,0.875609,-884.147035,-194.634099,-500.537136,
259,-0.17156,0.397248,-0.104587,-0.161954,-0.245423,0.924333,-816.545753,-197.844216,-496.760528,
260,-0.17156,0.397248,-0.104587,-0.200166,-0.125065,0.929206,-739.943556,-198.158933,-477.940432,
261,-0.208257,0.427523,-0.051376,-0.250937,-0.152491,0.912964,-641.562919,-174.366303,-434.005893,
262,-0.208257,0.427523,-0.051376,-0.1844,-0.219062,0.721857,-508.878095,-148.055935,-358.914339,
263,-0.208257,0.427523,-0.051376,-0.153403,-0.183913,0.56188,-368.891828,-119.164884,-260.156042,
264,-0.243119,0.43578,-0.005505,-0.235171,0.045887,0.524524,-223.681253,-75.985667,-149.942034,
265,-0.243119,0.43578,-0.005505,-0.306251,0.457823,0.486086,-73.309315,-16.881753,-23.677443,
266,-0.266055,0.43211,0.024771,-0.390691,0.880144,0.538059,73.852507,54.810854,124.680305,
267,-0.266055,0.43211,0.024771,-0.468452,1.380751,0.709676,213.901718,134.497281,275.429904,
268,-0.266055,0.43211,0.024771,-0.558504,2.128467,2.119699,238.575556,92.576933,349.703193,
269,-0.26789,0.434862,0.036697,-0.24586,1.3701,1.853341,286.349646,52.670776,463.756753,
270,-0.26789,0.434862,0.036697,-1.031211,1.243351,1.310066,401.725018,198.196068,465.141509,
271,-0.26789,0.434862,0.036697,-0.54354,1.003166,0.976035,477.005403,306.081167,418.437458,
272,-0.246789,0.445872,0.022018,-0.526705,0.887334,0.969268,490.349417,332.958027,431.277924,
273,-0.246789,0.445872,0.022018,-0.479407,0.760851,0.897264,481.663219,362.98206,425.172408,
274,-0.213761,0.456881,-0.009174,-0.336714,0.696411,0.747031,457.241155,425.988469,411.450733,
275,-0.213761,0.456881,-0.009174,-0.28327,0.483919,0.748656,429.3572,471.559538,399.113814,
276,-0.213761,0.456881,-0.009174,-0.313466,0.331074,0.825261,411.858916,495.729828,385.392138,
277,-0.172477,0.451376,-0.051376,-0.187874,0.523062,0.7898,315.744245,580.955281,336.233292,
278,-0.172477,0.451376,-0.051376,0.026702,0.366223,0.955463,240.086199,602.230172,310.615301,
279,-0.172477,0.451376,-0.051376,-0.283805,0.09941,0.988487,173.303183,566.22651,281.53542,
280,-0.124771,0.440367,-0.087156,0.013341,0.034171,0.78574,116.150516,562.827563,233.824274,
281,-0.124771,0.440367,-0.087156,0.167792,-0.100034,0.52669,73.53779,577.115729,205.751488,
282,-0.072477,0.43578,-0.109174,0.402676,-0.25714,0.350471,34.449898,576.171577,195.302873,
283,-0.072477,0.43578,-0.109174,0.679246,-0.51916,0.299852,6.062395,544.511014,201.660163,
284,-0.072477,0.43578,-0.109174,0.983873,-0.817926,0.319071,-0.735499,504.604857,222.053846,
285,-0.026606,0.434862,-0.116514,1.343013,-1.09113,0.406504,-2.057312,464.950474,248.427158,
286,-0.026606,0.434862,-0.116514,1.71872,-1.310279,0.666907,-1.30199,415.980458,276.751717,
287,-0.026606,0.434862,-0.116514,2.009986,-1.361937,1.091349,5.370017,357.505979,294.501774,
288,0.018349,0.43578,-0.119266,2.225363,-1.181133,1.59023,20.098788,293.681305,300.166686,
289,0.018349,0.43578,-0.119266,2.306063,-0.826181,2.03741,55.850676,226.583571,292.991131,
290,0.063303,0.431193,-0.111009,2.230173,-0.479218,2.282925,106.708996,159.54878,270.960918,
291,0.063303,0.431193,-0.111009,2.144397,-0.22918,2.416105,150.958252,87.478512,233.446613,
292,0.063303,0.431193,-0.111009,1.884929,-0.123733,2.403924,195.711056,-16.000545,179.944667,
293,0.090826,0.421101,-0.110092,1.592861,0.03284,2.111308,222.524972,-112.429933,102.713035,
294,0.090826,0.421101,-0.110092,1.250823,0.135624,1.73911,219.251912,-196.45946,7.353686,
295,0.090826,0.421101,-0.110092,0.966504,0.155329,1.311961,175.946808,-276.586491,-99.713149,
296,0.10367,0.406422,-0.114679,0.827818,0.164915,0.87209,94.938568,-349.915628,-213.451991,
297,0.10367,0.406422,-0.114679,0.791744,0.219502,0.559443,-25.724055,-386.234008,-318.882295,
298,0.090826,0.393578,-0.130275,0.678711,0.230686,0.469304,-155.261706,-392.465411,-408.639677,
299,0.090826,0.393578,-0.130275,0.599081,0.264237,0.564316,-269.881757,-384.723364,-477.373941,
300,0.090826,0.393578,-0.130275,0.544301,0.248527,0.781138,-353.093018,-378.114301,-521.119649,
301,0.053211,0.39633,-0.137615,0.544568,0.193141,1.058325,-405.776698,-379.247283,-543.212806,
302,0.053211,0.39633,-0.137615,0.633017,0.119381,1.235085,-435.737788,-393.598393,-547.870622,
303,0.053211,0.39633,-0.137615,0.738835,0.004081,1.308442,-454.809658,-414.117963,-535.407816,
304,0.004587,0.420183,-0.130275,0.753799,-0.072075,1.282185,-467.398351,-428.972621,-506.390878,
305,0.004587,0.420183,-0.130275,0.630078,-0.158882,1.110297,-475.140397,-433.945154,-469.065404,
306,-0.050459,0.444954,-0.108257,0.543499,-0.224387,0.913235,-485.777843,-432.245681,-432.998798,
307,-0.050459,0.444954,-0.108257,0.579039,-0.395339,0.639838,-492.890454,-423.8742,-400.079366,
308,-0.050459,0.444954,-0.108257,0.664549,-0.543391,0.298228,-506.863904,-398.507983,-363.005664,
309,-0.106422,0.462385,-0.074312,0.490858,-0.493863,0.208088,-530.278873,-328.011302,-307.174811,
310,-0.106422,0.462385,-0.074312,0.11809,-0.334627,0.364276,-500.44367,-233.973765,-214.018482,
311,-0.106422,0.462385,-0.074312,-0.367978,-0.16474,0.374833,-373.171983,-171.596791,-65.157187,
312,-0.150459,0.475229,-0.036697,-0.735401,-0.016422,0.08736,-170.871686,-145.160535,131.729973,
313,-0.150459,0.475229,-0.036697,-0.886913,0.119647,-0.386347,66.173405,-88.952021,345.423038,
314,-0.17156,0.488073,-0.002752,-1.018117,0.337731,-0.563919,256.4515,20.129004,525.693122,
315,-0.17156,0.488073,-0.002752,-1.142373,0.584573,-0.254792,360.119388,111.397029,623.444324,
316,-0.17156,0.488073,-0.002752,-1.163216,0.769638,0.125528,392.912933,142.805818,629.990445,
317,-0.156881,0.498165,0.002752,-0.766399,0.843664,0.803606,374.974045,147.904239,588.258927,
318,-0.156881,0.498165,0.002752,-0.534187,0.751531,1.285975,404.809248,120.775606,540.233063,
319,-0.156881,0.498165,0.002752,-0.476468,0.696943,0.720775,394.864181,150.862582,476.660163,
320,-0.110092,0.502752,-0.024771,-0.543005,0.659664,0.397571,351.684963,172.641021,405.282273,
321,-0.110092,0.502752,-0.024771,-0.50025,0.573922,0.297416,307.561594,177.676498,351.025006,
322,-0.066055,0.493578,-0.045872,-0.437989,0.477528,0.371314,281.628886,198.070181,312.755379,
323,-0.066055,0.493578,-0.045872,-0.219405,0.387525,0.445212,269.417854,202.350337,285.312028,
324,-0.066055,0.493578,-0.045872,0.209211,0.287138,0.518569,249.464776,177.550611,278.514134,
325,-0.033945,0.483486,-0.066972,0.608968,0.075977,0.842044,250.723645,173.89989,303.439746,
326,-0.033945,0.483486,-0.066972,0.991355,-0.199357,1.276771,306.302725,168.423809,347.940776,
327,-0.033945,0.483486,-0.066972,1.30774,-0.439276,1.611615,397.94841,141.798723,404.715782,
328,-0.002752,0.466972,-0.083486,1.526858,-0.685851,1.762389,485.062166,99.689545,455.007611,
329,-0.002752,0.466972,-0.083486,1.648175,-0.849347,1.842513,556.754773,46.879977,492.018369,
330,0.029358,0.449541,-0.10367,1.613971,-0.890355,1.820316,620.516504,-7.503177,515.433338,
331,0.029358,0.449541,-0.10367,1.408748,-0.85201,1.760765,701.713574,-46.087521,540.296006,
332,0.029358,0.449541,-0.10367,1.230514,-0.722332,1.497654,802.423118,-77.49631,566.984036,
333,0.058716,0.411927,-0.125688,0.939782,-0.530876,1.184466,907.538706,-121.99734,588.384814,
334,0.058716,0.411927,-0.125688,0.952609,-0.245157,0.877233,1005.226964,-176.12872,591.280213,
335,0.058716,0.411927,-0.125688,0.878857,0.050148,0.721587,1092.214833,-180.031215,584.922923,
336,0.079817,0.352294,-0.155963,0.76716,0.304978,0.700743,1172.341864,-166.938974,556.472477,
337,0.079817,0.352294,-0.155963,0.710777,0.500428,0.647147,1228.046831,-136.789055,511.216125,
338,0.077982,0.265138,-0.178899,0.527734,0.529985,0.607085,1234.781782,-88.637304,449.216812,
339,0.077982,0.265138,-0.178899,0.29766,0.404035,0.613581,1180.209797,-23.427874,366.760873,
340,0.077982,0.265138,-0.178899,0.023495,0.05787,0.635237,1073.331793,33.85068,278.702965,
341,0.066972,0.16055,-0.189908,-0.185469,-0.349273,0.631988,915.343695,56.950932,191.903926,
342,0.066972,0.16055,-0.189908,-0.181728,-0.708219,0.579204,699.762327,28.752259,109.007382,
343,0.066972,0.16055,-0.189908,0.04701,-0.99021,0.586783,440.687023,-35.575962,52.232376,
344,0.057798,0.07156,-0.16789,0.179015,-1.186725,0.631988,179.031038,-134.145429,25.670234,
345,0.057798,0.07156,-0.16789,0.251164,-1.276195,0.617642,-70.288028,-233.470217,3.514134,
346,0.055046,0.021101,-0.144037,0.301935,-1.304953,0.430054,-293.359669,-317.310913,-26.258125,
347,0.055046,0.021101,-0.144037,0.331062,-1.334244,0.066788,-488.736186,-379.562,-63.268883,
348,0.055046,0.021101,-0.144037,0.218296,-1.380577,-0.274552,-663.970793,-412.418489,-105.755722,
349,0.03945,0.020183,-0.146789,0.017616,-1.353683,-0.518714,-825.420782,-425.762504,-159.320611,
350,0.03945,0.020183,-0.146789,-0.179323,-1.163026,-0.719295,-981.96118,-427.587864,-223.208228,
351,0.03945,0.020183,-0.146789,-0.283537,-0.864525,-0.834338,-1136.298557,-418.901666,-293.516079,
352,0.015596,0.062385,-0.170642,-0.331369,-0.652832,-0.841647,-1269.738703,-403.669348,-362.753891,
353,0.015596,0.062385,-0.170642,-0.34286,-0.522355,-0.698723,-1378.567955,-379.310226,-434.068837,
354,-0.011927,0.13578,-0.19633,-0.291019,-0.448862,-0.41098,-1465.11522,-341.858865,-505.887331,
355,-0.011927,0.13578,-0.19633,-0.178521,-0.312526,0.169379,-1522.267886,-301.826821,-579.027637,
356,-0.011927,0.13578,-0.19633,-0.001891,-0.361255,0.571083,-1545.556968,-279.041286,-646.062428,
357,-0.040367,0.243119,-0.197248,0.105531,-0.333562,0.750009,-1562.362874,-265.634328,-704.536907,
358,-0.040367,0.243119,-0.197248,0.197988,-0.197227,0.982532,-1562.803478,-262.172437,-760.493648,
359,-0.040367,0.243119,-0.197248,0.270938,-0.060891,1.242123,-1526.673929,-265.949045,-811.037251,
360,-0.079817,0.353211,-0.165138,0.320373,0.059201,1.206392,-1459.953856,-271.928675,-854.971789,
361,-0.079817,0.353211,-0.165138,0.306478,0.111392,0.941116,-1379.763881,-280.614873,-897.395685,
362,-0.133028,0.438532,-0.094495,0.16325,0.180625,0.740806,-1295.230807,-281.559025,-918.796463,
363,-0.133028,0.438532,-0.094495,-0.020596,0.136955,0.639568,-1190.052276,-274.509357,-903.060597,
364,-0.133028,0.438532,-0.094495,-0.310526,0.032307,0.613581,-1052.961409,-264.375459,-846.537365,
365,-0.198165,0.465138,-0.005505,-0.385881,-0.02228,0.6014,-898.057541,-243.792946,-758.605344,
366,-0.198165,0.465138,-0.005505,-0.509336,0.012336,0.56594,-739.377065,-224.406358,-644.111181,
367,-0.198165,0.465138,-0.005505,-0.650961,0.079173,0.488793,-585.669122,-206.656301,-518.853685,
368,-0.26055,0.453211,0.070642,-0.850839,0.247994,0.427888,-437.248431,-186.136731,-384.72116,
369,-0.26055,0.453211,0.070642,-0.99861,0.492174,0.402173,-298.45809,-166.813088,-251.910448,
370,-0.297248,0.425688,0.121101,-1.079042,0.695612,0.35805,-168.102173,-151.014278,-122.750457,
371,-0.297248,0.425688,0.121101,-1.075836,0.803988,0.219728,-51.656762,-133.641881,-1.83606,
372,-0.297248,0.425688,0.121101,-1.051519,0.8418,0.181831,38.604167,-110.038082,99.691749,
373,-0.312844,0.407339,0.148624,-1.004222,0.829285,0.211878,107.086657,-76.992762,178.685798,
374,-0.312844,0.407339,0.148624,-0.95826,0.817302,0.270347,154.860747,-45.583973,232.502461,
375,-0.312844,0.407339,0.148624,-0.963872,0.852451,0.340726,185.136554,-19.525379,263.659476,
376,-0.310092,0.410092,0.157798,-1.004222,0.895588,0.39324,204.649028,1.938343,278.010586,
377,-0.310092,0.410092,0.157798,-0.987387,0.913429,0.39324,219.188969,18.807192,279.71006,
378,-0.3,0.42844,0.153211,-0.921384,0.907305,0.362381,228.882262,32.340037,275.115187,
379,-0.3,0.42844,0.153211,-0.861795,0.891328,0.351554,242.037447,53.237267,274.548696,
380,-0.3,0.42844,0.153211,-0.888517,0.874819,0.404609,271.998536,87.919117,291.102827,
381,-0.282569,0.447706,0.144037,-0.909627,0.879612,0.473905,331.731885,128.517652,333.274949,
382,-0.282569,0.447706,0.144037,-0.907222,0.84393,0.490959,426.965348,165.024862,401.065061,
383,-0.282569,0.447706,0.144037,-0.809153,0.819432,0.477424,545.676723,205.749284,485.157531,
384,-0.266055,0.46422,0.125688,-0.666727,0.733424,0.520735,680.56457,260.384212,576.803216,
385,-0.266055,0.46422,0.125688,-0.450815,0.60055,0.589219,818.662533,321.628203,664.798181,
386,-0.237615,0.480734,0.091743,-0.284339,0.41442,0.719962,957.704647,378.59204,755.184997,
387,-0.237615,0.480734,0.091743,-0.09408,0.293795,0.937597,1109.587229,430.520398,836.507954,
388,-0.237615,0.480734,0.091743,-0.019794,0.294327,1.118689,1269.841292,470.363612,892.779412,
389,-0.187156,0.497248,0.031193,0.319571,0.041627,1.117876,1396.546488,505.674896,909.900035,
390,-0.187156,0.497248,0.031193,0.588125,-0.311461,1.048038,1466.539621,520.781328,903.857462,
391,-0.187156,0.497248,0.031193,0.658403,-0.68239,0.917566,1470.442116,519.144798,866.343157,
392,-0.113761,0.477982,-0.053211,0.690736,-1.07542,0.830945,1412.156467,502.527723,796.28708,
393,-0.113761,0.477982,-0.053211,0.843317,-1.455136,0.840149,1305.844954,478.86098,706.089094,
394,-0.030275,0.408257,-0.13945,1.001777,-1.800501,0.904302,1148.738065,445.563887,609.848536,
395,-0.030275,0.408257,-0.13945,1.095837,-1.986099,1.010413,955.690457,395.586775,519.084059,
396,-0.030275,0.408257,-0.13945,1.07927,-1.908079,1.124914,761.824583,325.530698,431.970303,
397,0.034862,0.309174,-0.185321,1.074994,-1.722215,1.218573,580.169742,232.122596,338.37337,
398,0.034862,0.309174,-0.185321,1.058427,-1.572033,1.180676,413.432503,136.889133,245.594702,
399,0.034862,0.309174,-0.185321,0.983071,-1.449277,1.123561,233.854796,47.194695,148.221161,
400,0.06789,0.233945,-0.191743,0.804036,-1.313741,1.071047,32.687481,-32.302902,40.084288,
401,0.06789,0.233945,-0.191743,0.565411,-1.088201,1.065904,-193.027786,-110.667516,-79.004749,
402,0.080734,0.195413,-0.190826,0.319037,-0.764404,1.046685,-417.7989,-192.871682,-204.262245,
403,0.080734,0.195413,-0.190826,0.10366,-0.382292,0.900783,-620.350972,-260.41002,-328.95325,
404,0.080734,0.195413,-0.190826,-0.087934,-0.097371,0.772476,-789.60595,-301.700934,-446.468699,
405,0.07156,0.208257,-0.192661,-0.199097,0.086895,0.624138,-924.871457,-318.8845,-552.717269,
406,0.07156,0.208257,-0.192661,-0.228223,0.119647,0.477154,-1030.679422,-316.744422,-649.083714,
407,0.07156,0.208257,-0.192661,-0.115992,0.044556,0.453062,-1104.889768,-301.260329,-732.294975,
408,0.045872,0.268807,-0.192661,0.090032,0.003283,0.627928,-1134.410253,-277.152982,-794.168402,
409,0.045872,0.268807,-0.192661,0.2851,-0.057429,0.87994,-1126.479376,-255.626317,-831.493877,
410,0.008257,0.350459,-0.173394,0.480169,-0.014558,1.143592,-1094.126435,-228.182966,-843.264305,
411,0.008257,0.350459,-0.173394,0.586254,0.069586,1.275959,-1045.282306,-200.676672,-835.459315,
412,0.008257,0.350459,-0.173394,0.596943,0.163317,1.326037,-993.479834,-187.143827,-820.982318,
413,-0.046789,0.429358,-0.129358,0.553654,0.300718,1.346609,-938.152528,-182.423067,-805.498226,
414,-0.046789,0.429358,-0.129358,0.534414,0.401372,1.39398,-875.33495,-187.521488,-787.433451,
415,-0.046789,0.429358,-0.129358,0.575833,0.311902,1.346609,-796.781505,-212.572987,-756.024662,
416,-0.111927,0.472477,-0.07156,0.553119,0.144944,1.189609,-704.002837,-247.821327,-700.571469,
417,-0.111927,0.472477,-0.07156,0.602287,0.022721,1.036399,-609.587639,-258.018169,-617.926699,
418,-0.172477,0.486239,-0.013761,0.556059,-0.120804,0.934078,-506.423299,-220.503863,-508.530956,
419,-0.172477,0.486239,-0.013761,0.435009,-0.285632,0.810102,-369.395375,-167.820183,-370.055333,
420,-0.172477,0.486239,-0.013761,0.149889,-0.332497,0.738099,-188.055252,-127.158704,-191.925326,
421,-0.223853,0.481651,0.034862,-0.302777,-0.397203,0.710218,83.419914,-89.329682,52.547094,
422,-0.223853,0.481651,0.034862,-0.518154,-0.319449,0.533999,436.029207,-46.213408,355.934596,
423,-0.223853,0.481651,0.034862,-0.389088,-0.149296,0.248692,801.35308,0.868304,657.496739,
424,-0.247706,0.473394,0.062385,-0.171039,0.059468,0.188598,1113.175007,77.596388,890.261674,
425,-0.247706,0.473394,0.062385,-0.028612,0.25119,0.219728,1332.595927,190.265191,1031.821527,
426,-0.222018,0.482569,0.036697,0.067319,0.406964,0.296874,1448.72662,310.424267,1089.288911,
427,-0.222018,0.482569,0.036697,0.123167,0.491375,0.46768,1497.885467,402.825274,1089.729515,
428,-0.222018,0.482569,0.036697,0.117021,0.472203,0.621973,1521.866927,443.046148,1042.333086,
429,-0.151376,0.477982,-0.043119,0.097781,0.381667,0.783845,1508.711743,440.213692,946.407245,
430,-0.151376,0.477982,-0.043119,0.220167,0.222698,0.958711,1462.448296,440.843127,820.205597,
431,-0.151376,0.477982,-0.043119,0.448637,0.013135,0.885083,1385.279607,435.933536,695.955196,
432,-0.063303,0.419266,-0.130275,0.542431,-0.199623,0.812809,1265.62408,384.634612,582.594015,
433,-0.063303,0.419266,-0.130275,0.57316,-0.351936,0.790071,1116.51101,341.581282,486.982891,
434,0.001835,0.314679,-0.188073,0.53575,-0.479218,0.865323,957.2011,297.332026,403.456913,
435,0.001835,0.314679,-0.188073,0.551249,-0.563895,0.893204,800.471871,236.654525,326.665885,
436,0.001835,0.314679,-0.188073,0.580643,-0.671206,0.896723,621.649486,157.72342,246.412967,
437,0.037615,0.220183,-0.202752,0.596408,-0.779848,0.872361,419.475075,64.252374,163.45348,
438,0.037615,0.220183,-0.202752,0.619389,-0.852543,0.852871,202.886611,-27.519199,80.305162,
439,0.037615,0.220183,-0.202752,0.612441,-0.872514,0.764897,-13.953627,-108.905099,1.877604,
440,0.055046,0.157798,-0.197248,0.538957,-0.827779,0.659599,-211.470221,-183.556049,-69.563229,
441,0.055046,0.157798,-0.197248,0.40134,-0.756149,0.502869,-369.080658,-244.674154,-134.269111,
442,0.049541,0.142202,-0.195413,0.252233,-0.679993,0.344786,-485.337239,-283.762046,-196.331368,
443,0.049541,0.142202,-0.195413,0.131451,-0.59505,0.19726,-566.597252,-302.645086,-252.351052,
444,0.049541,0.142202,-0.195413,0.025633,-0.497325,0.070578,-623.183428,-305.540485,-300.880464,
445,0.033945,0.166055,-0.200917,-0.061747,-0.45898,-0.023893,-661.515998,-299.057308,-341.416056,
446,0.033945,0.166055,-0.200917,-0.099692,-0.442737,-0.058812,-682.97972,-285.335633,-375.153753,
447,0.033945,0.166055,-0.200917,-0.076177,-0.429157,-0.056647,-693.554222,-263.242476,-402.471217,
448,0.006422,0.217431,-0.206422,-0.029948,-0.416642,0.036741,-696.953169,-237.246825,-424.942034,
449,0.006422,0.217431,-0.206422,0.04514,-0.404659,0.139874,-695.127808,-214.209517,-443.069752,
450,-0.018349,0.275229,-0.200917,0.126374,-0.363652,0.264662,-689.148179,-193.438173,-456.728484,
451,-0.018349,0.275229,-0.200917,0.206271,-0.292289,0.386202,-680.839642,-178.898233,-467.995365,
452,-0.018349,0.275229,-0.200917,0.255707,-0.166604,0.51884,-669.761592,-168.890222,-477.248054,
453,-0.045872,0.325688,-0.185321,0.323847,-0.025742,0.661493,-656.669351,-163.602971,-485.745422,
454,-0.045872,0.325688,-0.185321,0.413365,0.10154,0.798192,-647.479605,-161.77761,-493.235694,
455,-0.045872,0.325688,-0.185321,0.560334,0.21178,0.998232,-650.626779,-161.77761,-497.578793,
456,-0.077982,0.370642,-0.159633,0.711846,0.288735,1.182301,-663.970793,-170.652639,-501.607175,
457,-0.077982,0.370642,-0.159633,0.820069,0.303114,1.278395,-667.999175,-191.298096,-505.132009,
458,-0.108257,0.407339,-0.13211,0.889278,0.270628,1.25268,-656.606408,-219.370881,-503.999027,
459,-0.108257,0.407339,-0.13211,0.907983,0.204591,1.10353,-632.624947,-250.905557,-498.271171,
460,-0.108257,0.407339,-0.13211,0.887675,0.148405,0.909716,-604.552162,-273.1246,-485.115987,
461,-0.144954,0.433028,-0.09633,0.810182,0.132429,0.736745,-574.276355,-280.174269,-465.981174,
462,-0.144954,0.433028,-0.09633,0.62313,0.163583,0.602212,-533.363103,-274.38347,-435.516536,
463,-0.144954,0.433028,-0.09633,0.360456,0.190478,0.508012,-471.300846,-260.598851,-389.001316,
464,-0.186239,0.444954,-0.056881,0.1066,0.244533,0.423286,-389.914945,-243.163511,-327.946154,
465,-0.186239,0.444954,-0.056881,-0.109045,0.300984,0.332335,-295.436804,-227.175871,-256.253547,
466,-0.222936,0.450459,-0.019266,-0.263763,0.304446,0.179124,-191.139482,-204.767997,-164.230201,
467,-0.222936,0.450459,-0.019266,-0.419551,0.286871,0.015357,-89.863446,-166.561314,-57.792801,
468,-0.222936,0.450459,-0.019266,-0.589501,0.323884,-0.072617,6.188282,-105.317322,54.938945,
469,-0.244037,0.446789,0.011927,-0.7509,0.360098,-0.09725,100.477593,-29.53339,169.684883,
470,-0.244037,0.446789,0.011927,-0.943563,0.379537,-0.008193,196.15166,55.188515,294.438831,
471,-0.244037,0.446789,0.011927,-1.104695,0.399242,0.156116,305.799177,139.784532,433.229172,
472,-0.253211,0.451376,0.024771,-1.154932,0.382466,0.315552,442.134723,214.372538,582.405185,
473,-0.253211,0.451376,0.024771,-1.108704,0.364891,0.398383,586.589976,272.217583,708.606833,
474,-0.23211,0.458716,0.011927,-0.988456,0.385129,0.476071,722.799635,323.831225,801.385501,
475,-0.23211,0.458716,0.011927,-0.874354,0.365424,0.633883,827.852278,370.78705,843.87234,
476,-0.23211,0.458716,0.011927,-0.775751,0.287936,0.818223,902.188511,403.202934,831.787194,
477,-0.177064,0.46789,-0.030275,-0.657908,0.12444,0.912964,954.242757,418.687027,781.998913,
478,-0.177064,0.46789,-0.030275,-0.475132,-0.062222,0.878316,979.860747,419.505292,717.481861,
479,-0.177064,0.46789,-0.030275,-0.342592,-0.184445,0.888061,979.294256,402.384669,648.495823,
480,-0.107339,0.449541,-0.088073,-0.202571,-0.333828,0.981719,964.124881,381.676269,560.752633,
481,-0.107339,0.449541,-0.088073,-0.076979,-0.498656,1.028278,936.240926,375.004262,459.854258,
482,-0.041284,0.40367,-0.140367,0.036856,-0.611026,1.035587,886.137927,371.920032,354.046293,
483,-0.041284,0.40367,-0.140367,0.196919,-0.655229,1.04452,807.458596,372.675354,246.350023,
484,-0.041284,0.40367,-0.140367,0.404279,-0.727657,1.147382,708.007921,362.163795,149.731804,
485,0.005505,0.338532,-0.175229,0.614846,-0.875975,1.30357,596.912704,327.356059,70.926586,
486,0.005505,0.338532,-0.175229,0.839843,-1.090864,1.478165,470.96283,273.161735,1.499943,
487,0.005505,0.338532,-0.175229,1.030102,-1.36247,1.628668,322.164478,212.106574,-65.786621,
488,0.044037,0.277064,-0.190826,1.132179,-1.550198,1.780525,159.45562,139.595702,-121.617475,
489,0.044037,0.277064,-0.190826,1.173597,-1.591471,1.844679,-15.46427,43.669861,-172.412851,
490,0.062385,0.243119,-0.188073,1.176537,-1.490551,1.826272,-198.629754,-74.286193,-221.571698,
491,0.062385,0.243119,-0.188073,1.089958,-1.367796,1.697423,-383.431768,-195.578251,-271.674696,
492,0.062385,0.243119,-0.188073,0.97933,-1.150511,1.529325,-565.527213,-294.462435,-336.884126,
493,0.069725,0.240367,-0.191743,0.850799,-0.904201,1.432959,-739.377065,-349.22325,-420.535992,
494,0.069725,0.240367,-0.191743,0.733491,-0.646708,1.42538,-897.49105,-374.337693,-516.335946,
495,0.069725,0.240367,-0.191743,0.657601,-0.407322,1.320894,-1027.343418,-387.744651,-614.716582,
496,0.048624,0.281651,-0.187156,0.580643,-0.22492,1.222092,-1132.584892,-391.206541,-712.908388,
497,0.048624,0.281651,-0.187156,0.52907,-0.035328,1.167683,-1210.571846,-373.897088,-808.204795,
498,0.00367,0.353211,-0.169725,0.491392,0.109795,1.117064,-1256.898237,-343.621282,-899.913424,
499,0.00367,0.353211,-0.169725,0.489522,0.21391,1.084311,-1277.543693,-305.288711,-982.432307,
500,0.00367,0.353211,-0.169725,0.514105,0.224562,1.066716,-1275.466559,-270.984523,-1049.844758,
501,-0.057798,0.431193,-0.120183,0.534948,0.137754,1.018263,-1246.764339,-244.170606,-1097.304131,
502,-0.057798,0.431193,-0.120183,0.573695,0.098345,0.950861,-1203.773952,-210.684683,-1126.446955,
503,-0.057798,0.431193,-0.120183,0.482841,0.218437,0.99769,-1138.060974,-191.801643,-1126.761673,
504,-0.137615,0.478899,-0.050459,0.259448,0.376608,1.137095,-1044.526985,-188.780357,-1094.975223,
505,-0.137615,0.478899,-0.050459,-0.147791,0.315363,1.323871,-925.941496,-220.881524,-1027.751602,
506,-0.214679,0.474312,0.033945,-0.226887,0.16598,1.699318,-757.064178,-257.451678,-863.217383,
507,-0.214679,0.474312,0.033945,-0.6539,-0.239565,1.553958,-486.847882,-272.621053,-567.068379,
508,-0.214679,0.474312,0.033945,-0.642944,-0.516763,1.007976,-150.540947,-244.737098,-191.673552,
509,-0.284404,0.437615,0.097248,-0.427567,-0.467768,0.335854,188.976105,-175.373399,207.513905,
510,-0.284404,0.437615,0.097248,-0.347402,-0.237701,-0.082091,468.633922,-57.165571,557.479572,
511,-0.284404,0.437615,0.097248,-0.306518,0.096747,-0.047985,659.793226,90.373912,797.420062,
512,-0.310092,0.415596,0.129358,-0.202571,0.402171,0.294167,771.077273,213.617217,918.71212,
513,-0.310092,0.415596,0.129358,-0.110114,0.639427,0.754611,825.901031,286.568693,947.540227,
514,-0.275229,0.448624,0.112844,-0.009373,0.741678,1.198542,846.357657,307.40298,905.99754,
515,-0.275229,0.448624,0.112844,0.139734,0.75872,1.440539,850.071322,288.33111,825.807565,
516,-0.275229,0.448624,0.112844,0.368472,0.749933,1.429982,830.24413,257.237038,741.903926,
517,-0.212844,0.487156,0.053211,0.584651,0.733956,1.39804,787.442574,236.654525,667.69358,
518,-0.212844,0.487156,0.053211,0.694477,0.647149,1.290035,727.268621,228.157157,599.525807,
519,-0.212844,0.487156,0.053211,0.660273,0.541169,1.234814,644.05736,235.458599,538.785363,
520,-0.150459,0.494495,-0.011009,0.62313,0.400307,1.26459,564.307989,241.501172,486.290513,
521,-0.150459,0.494495,-0.011009,0.725741,0.220035,1.414282,502.119845,240.74585,453.434024,
522,-0.102752,0.479817,-0.057798,0.869237,-0.019618,1.524994,467.50094,241.564116,445.314317,
523,-0.102752,0.479817,-0.057798,0.934705,-0.172196,1.740192,462.402519,236.025091,466.211548,
524,-0.102752,0.479817,-0.057798,0.956082,-0.336491,1.832768,503.001054,230.92667,501.396945,
525,-0.057798,0.458716,-0.09633,1.017008,-0.433684,1.775382,573.308905,224.443493,551.311113,
526,-0.057798,0.458716,-0.09633,1.07633,-0.456051,1.683889,656.394279,221.548094,604.12068,
527,-0.057798,0.458716,-0.09633,1.084881,-0.454454,1.576966,744.200413,229.856631,652.209488,
528,-0.016514,0.434862,-0.120183,1.066176,-0.40173,1.507128,823.88684,249.557936,687.017224,
529,-0.016514,0.434862,-0.120183,1.077399,-0.368711,1.385047,886.074984,281.659103,701.11656,
530,0.029358,0.387156,-0.151376,1.08114,-0.361255,1.296802,911.000596,306.962376,696.773461,
531,0.029358,0.387156,-0.151376,1.067779,-0.3538,1.234814,889.159214,317.914539,673.924983,
532,0.029358,0.387156,-0.151376,1.107595,-0.433151,1.200708,825.838088,314.452648,642.453251,
533,0.07156,0.314679,-0.175229,1.065107,-0.201487,1.070506,767.363608,297.898517,622.374285,
534,0.07156,0.314679,-0.175229,0.914129,-0.043849,0.816869,682.326987,312.249627,597.196899,
535,0.07156,0.314679,-0.175229,0.607631,-0.051039,0.643087,590.618358,327.356059,564.025693,
536,0.108257,0.236697,-0.183486,0.301401,-0.105626,0.533728,506.714718,317.348048,521.350023,
537,0.108257,0.236697,-0.183486,-0.036896,-0.098703,0.445483,426.839461,280.526121,462.497883,
538,0.12844,0.166972,-0.173394,-0.232499,-0.145036,0.416519,341.614009,233.444408,383.126174,
539,0.12844,0.166972,-0.173394,-0.281934,-0.159947,0.708323,253.933762,173.081625,284.934368,
540,0.12844,0.166972,-0.173394,-0.014984,-0.101632,1.255658,174.499108,77.344614,200.653068,
541,0.143119,0.116514,-0.158716,-0.069229,-0.220127,0.908633,88.958939,-4.859551,135.380694,
542,0.143119,0.116514,-0.158716,-0.13443,-0.238234,0.451709,-32.89961,-20.973078,37.063001,
543,0.143119,0.116514,-0.158716,-0.090607,-0.203351,0.466055,-124.860013,-36.016567,-54.205024,
544,0.146789,0.093578,-0.150459,-0.10664,-0.235038,0.437092,-185.411626,-85.427187,-126.715896,
545,0.146789,0.093578,-0.150459,-0.05667,-0.251814,0.41273,-226.010161,-131.25003,-194.820725,
546,0.144037,0.095413,-0.151376,0.022159,-0.260601,0.347223,-241.997802,-150.762504,-259.652494,
547,0.144037,0.095413,-0.151376,0.135459,-0.325574,0.237864,-245.396749,-154.853829,-309.818436,
548,0.144037,0.095413,-0.151376,0.280291,-0.457649,0.180207,-244.641427,-166.120709,-337.576504,
549,0.13945,0.117431,-0.162385,0.425122,-0.572149,0.135002,-241.557197,-179.716498,-349.472819,
550,0.13945,0.117431,-0.162385,0.538422,-0.641915,0.105497,-241.43131,-185.759071,-353.690032,
551,0.13945,0.117431,-0.162385,0.606028,-0.673602,0.056772,-251.124604,-187.584431,-357.026035,
552,0.133945,0.144037,-0.170642,0.646111,-0.683188,0.053524,-265.979262,-185.38141,-360.7397,
553,0.133945,0.144037,-0.170642,0.684323,-0.724728,0.028891,-277.74969,-179.02412,-363.005664,
554,0.123853,0.177064,-0.180734,0.731086,-0.785174,-7.2E-05,-282.155732,-169.5826,-362.250343,
555,0.123853,0.177064,-0.180734,0.766358,-0.84056,-0.066121,-279.260333,-158.31572,-352.682936,
556,0.123853,0.177064,-0.180734,0.778383,-0.854673,-0.142726,-272.147722,-146.734122,-334.366388,
557,0.108257,0.206422,-0.183486,0.764221,-0.895947,-0.1993,-261.195559,-132.949503,-311.454966,
558,0.108257,0.206422,-0.183486,0.737232,-0.905533,-0.241257,-247.662714,-113.059368,-284.766937,
559,0.108257,0.206422,-0.183486,0.694744,-0.878372,-0.208233,-235.892285,-84.608922,-257.449473,
560,0.097248,0.233945,-0.190826,0.681116,-0.839761,-0.101852,-216.631585,-53.70368,-223.711776,
561,0.097248,0.233945,-0.190826,0.68646,-0.781712,0.034847,-184.341587,-26.197386,-179.84018,
562,0.088073,0.26055,-0.188991,0.683254,-0.763073,0.098729,-147.204943,-6.810799,-126.401178,
563,0.088073,0.26055,-0.188991,0.661075,-0.735379,0.131212,-115.796154,5.085516,-73.780441,
564,0.088073,0.26055,-0.188991,0.657868,-0.705556,0.156386,-90.807598,15.093527,-28.335259,
565,0.079817,0.279817,-0.187156,0.664549,-0.667212,0.199967,-71.924558,23.465008,9.745537,
566,0.079817,0.279817,-0.187156,0.63462,-0.574812,0.191305,-65.756099,22.457913,36.49651,
567,0.079817,0.279817,-0.187156,0.612976,-0.508775,0.278467,-87.093933,9.176842,46.000973,
568,0.081651,0.287156,-0.184404,0.613243,-0.493863,0.447919,-123.72703,-8.887933,34.985867,
569,0.081651,0.287156,-0.184404,0.627406,-0.434216,0.595174,-174.837124,-32.302902,4.89889,
570,0.083486,0.293578,-0.181651,0.610304,-0.310662,0.701285,-237.591759,-62.201048,-40.546292,
571,0.083486,0.293578,-0.181651,0.578505,-0.143172,0.765438,-307.584892,-93.987498,-99.713149,
572,0.083486,0.293578,-0.181651,0.535483,0.028579,0.731061,-375.563835,-124.011531,-172.475795,
573,0.081651,0.305505,-0.178899,0.381299,0.182756,0.657433,-424.407964,-144.15344,-255.057621,
574,0.081651,0.305505,-0.178899,0.208409,0.330275,0.641733,-452.543693,-153.154356,-346.514477,
575,0.081651,0.305505,-0.178899,0.060371,0.474865,0.728083,-468.846051,-157.686285,-441.74794,
576,0.068807,0.336697,-0.174312,-0.074574,0.567531,0.787094,-478.979949,-165.554218,-534.967212,
577,0.068807,0.336697,-0.174312,-0.187606,0.59549,0.794131,-490.750377,-174.555134,-626.48701,
578,0.043119,0.373394,-0.159633,-0.293157,0.603479,0.807937,-503.842617,-179.653554,-719.958056,
579,0.043119,0.373394,-0.159633,-0.305182,0.618657,0.847999,-515.487158,-180.723593,-813.366159,
580,0.043119,0.373394,-0.159633,-0.276055,0.633036,0.869925,-523.229205,-179.02412,-898.276894,
581,0.004587,0.411927,-0.144954,-0.251739,0.662859,0.900783,-527.32053,-176.002833,-969.969501,
582,0.004587,0.411927,-0.144954,-0.199097,0.755525,0.958169,-523.355092,-168.764335,-1027.185111,
583,0.004587,0.411927,-0.144954,-0.151265,0.881476,1.093514,-503.71673,-151.769599,-1062.244621,
584,-0.052294,0.440367,-0.117431,-0.150998,1.012219,1.196106,-463.118195,-129.298782,-1061.048695,
585,-0.052294,0.440367,-0.117431,-0.090339,1.089973,1.144404,-417.484183,-119.920206,-1019.506008,
586,-0.122018,0.449541,-0.089908,0.017616,1.12672,1.092161,-387.208376,-138.803245,-957.129034,
587,-0.122018,0.449541,-0.089908,0.17474,1.06654,1.155773,-362.975142,-154.790886,-895.444438,
588,-0.122018,0.449541,-0.089908,0.407486,0.952572,1.186902,-342.707346,-156.67919,-846.663252,
589,-0.187156,0.440367,-0.062385,0.659739,0.860173,1.199083,-328.041519,-157.119794,-807.953021,
590,-0.187156,0.440367,-0.062385,0.837973,0.760052,1.174721,-321.054794,-165.743049,-773.900606,
591,-0.187156,0.440367,-0.062385,0.91787,0.631971,1.090537,-327.412084,-181.730689,-746.331368,
592,-0.240367,0.415596,-0.038532,0.996165,0.501493,0.973057,-340.441381,-196.83712,-723.10523,
593,-0.240367,0.415596,-0.038532,0.994295,0.351045,0.867759,-360.520347,-205.082714,-688.989871,
594,-0.285321,0.383486,-0.015596,0.892485,0.131097,0.703721,-382.73939,-210.621739,-635.047322,
595,-0.285321,0.383486,-0.015596,0.72681,-0.082193,0.604649,-397.405218,-202.627919,-565.243019,
596,-0.285321,0.383486,-0.015596,0.475893,-0.308532,0.67205,-387.837811,-183.556049,-474.100881,
597,-0.321101,0.351376,0.009174,0.138666,-0.442471,0.622243,-345.917463,-178.520572,-350.668745,
598,-0.321101,0.351376,0.009174,-0.239714,-0.49333,0.428159,-288.953627,-180.84948,-213.955539,
599,-0.321101,0.351376,0.009174,-0.605267,-0.363652,0.29525,-212.414373,-166.624257,-68.115529,
600,-0.344037,0.325688,0.034862,-0.941693,-0.102431,0.247609,-124.608239,-140.439776,89.494908,
601,-0.344037,0.325688,0.034862,-1.191274,0.151335,0.254917,-39.634561,-110.163969,247.92361,
602,-0.351376,0.318349,0.053211,-1.344122,0.377407,0.315552,32.687481,-76.111554,397.477284,
603,-0.351376,0.318349,0.053211,-1.40959,0.586437,0.413,96.638042,-35.638906,530.036222,
604,-0.351376,0.318349,0.053211,-1.360956,0.740347,0.528585,159.203846,4.330195,641.446155,
605,-0.348624,0.334862,0.066972,-1.226814,0.88547,0.608709,217.930099,40.711518,735.357805,
606,-0.348624,0.334862,0.066972,-1.070759,1.060416,0.668802,273.760953,71.364985,808.875773,
607,-0.348624,0.334862,0.066972,-0.842555,1.103553,0.636861,318.073153,93.709915,858.41228,
608,-0.329358,0.374312,0.065138,-0.601793,1.030326,0.621973,358.356971,116.30662,885.037366,
609,-0.329358,0.374312,0.065138,-0.332171,0.899849,0.571354,394.612407,142.11344,889.380465,
610,-0.288073,0.424771,0.048624,-0.072703,0.758454,0.559714,419.475075,175.599364,879.309511,
611,-0.288073,0.424771,0.048624,0.208409,0.644486,0.647147,436.973359,210.029439,868.294404,
612,-0.288073,0.424771,0.048624,0.497004,0.541435,0.7584,452.898056,236.402751,867.602026,
613,-0.230275,0.46422,0.021101,0.803769,0.424006,0.832028,467.68977,250.816805,879.498341,
614,-0.230275,0.46422,0.021101,1.078201,0.289268,0.945447,481.914993,259.188286,897.122511,
615,-0.230275,0.46422,0.021101,1.344616,0.14308,1.059137,499.979768,264.412593,915.942607,
616,-0.166055,0.488991,-0.011009,1.592861,0.009673,1.189609,516.093295,260.258325,929.916057,
617,-0.166055,0.488991,-0.011009,1.779913,-0.087785,1.282185,526.164249,250.816805,937.909877,
618,-0.090826,0.492661,-0.049541,1.835761,-0.146633,1.301133,524.716549,234.262674,934.573873,
619,-0.090826,0.492661,-0.049541,1.822935,-0.161545,1.290306,509.2954,216.386729,918.649176,
620,-0.090826,0.492661,-0.049541,1.737692,-0.135716,1.324683,485.691601,196.118934,889.506352,
621,-0.016514,0.478899,-0.081651,1.64283,-0.060358,1.292201,458.940628,177.487668,850.984951,
622,-0.016514,0.478899,-0.081651,1.520445,0.032307,1.254845,429.73486,162.255349,809.631095,
623,-0.016514,0.478899,-0.081651,1.309611,0.132162,1.242123,403.676266,144.882953,770.291429,
624,0.049541,0.443119,-0.109174,1.130842,0.173702,1.179864,386.052095,129.272973,733.343615,
625,0.049541,0.443119,-0.109174,0.913862,0.25758,1.20937,379.128314,111.208199,695.451648,
626,0.10367,0.401835,-0.125688,0.714251,0.37075,1.292201,384.415565,86.597304,649.817636,
627,0.10367,0.401835,-0.125688,0.55205,0.45303,1.285433,405.061022,52.356059,591.154326,
628,0.10367,0.401835,-0.125688,0.466541,0.496168,1.270004,420.419227,14.338206,518.643454,
629,0.136697,0.355963,-0.136697,0.390117,0.506819,1.260801,430.238408,-35.513019,425.7389,
630,0.136697,0.355963,-0.136697,0.335872,0.360897,1.086747,423.629344,-94.679876,309.922923,
631,0.136697,0.355963,-0.136697,0.28991,0.106599,0.725106,376.610576,-154.287338,160.935741,
632,0.155046,0.306422,-0.144954,0.305142,-0.161811,0.433302,274.830992,-203.320297,-20.7191,
633,0.155046,0.306422,-0.144954,0.381566,-0.393475,0.370231,122.696636,-240.331055,-217.102712,
634,0.152294,0.268807,-0.156881,0.456387,-0.530876,0.475259,-57.636392,-272.74694,-408.073186,
635,0.152294,0.268807,-0.156881,0.51464,-0.560966,0.599235,-240.990706,-301.512103,-576.509899,
636,0.152294,0.268807,-0.156881,0.597477,-0.591322,0.627657,-413.959349,-325.493564,-719.454509,
637,0.136697,0.26422,-0.170642,0.824879,-0.647241,0.757588,-565.904874,-346.642568,-840.243019,
638,0.136697,0.26422,-0.170642,1.057625,-0.736711,0.924604,-689.022292,-363.700247,-937.427729,
639,0.136697,0.26422,-0.170642,1.272467,-0.813932,1.073754,-771.100571,-373.267654,-1008.050297,
640,0.099083,0.305505,-0.17156,1.452037,-0.803813,1.150359,-811.887937,-373.267654,-1057.272087,
641,0.099083,0.305505,-0.17156,1.550373,-0.768398,1.179594,-818.497001,-368.672781,-1086.855516,
642,0.042202,0.373394,-0.157798,1.52953,-0.712746,1.120583,-802.32053,-364.644399,-1099.884813,
643,0.042202,0.373394,-0.157798,1.467001,-0.744167,1.032338,-775.003066,-360.3013,-1103.157873,
644,0.042202,0.373394,-0.157798,1.369734,-0.87491,0.868842,-743.846051,-349.537967,-1097.744735,
645,-0.037615,0.427523,-0.127523,1.187492,-1.102314,0.752987,-718.479834,-321.905786,-1077.66577,
646,-0.037615,0.427523,-0.127523,0.862022,-1.320398,0.668531,-688.644632,-289.552845,-1018.310082,
647,-0.037615,0.427523,-0.127523,0.695011,-1.265278,0.581911,-645.339527,-281.747855,-907.970187,
648,-0.120183,0.456881,-0.082569,-0.009373,-0.926303,1.310066,-562.883588,-297.043117,-748.91205,
649,-0.120183,0.456881,-0.082569,-0.161419,-0.864792,0.563774,-401.81126,-390.765937,-523.007953,
650,-0.19633,0.455046,-0.03578,-0.395501,-0.534338,-0.02254,-256.663629,-358.916544,-237.307564,
651,-0.19633,0.455046,-0.03578,-0.722308,-0.306668,-0.387159,-97.164888,-265.256667,68.408847,
652,-0.19633,0.455046,-0.03578,-0.928599,-0.07314,-0.523586,53.081164,-147.300613,352.535649,
653,-0.243119,0.444954,0.005505,-1.040029,0.269563,-0.315426,179.723416,-21.413683,572.648948,
654,-0.243119,0.444954,0.005505,-1.005558,0.7265,0.225412,280.181187,76.211632,716.852427,
655,-0.243119,0.444954,0.005505,-0.878362,1.152283,0.903761,346.271825,104.221474,767.144255,
656,-0.237615,0.458716,0.015596,-0.515215,1.011154,1.28814,381.834883,71.679703,743.225739,
657,-0.237615,0.458716,0.015596,-0.19108,0.900381,1.29599,406.508722,59.27984,707.725624,
658,-0.193578,0.480734,0.000917,-0.070833,0.931803,1.220739,426.27297,73.253289,652.964809,
659,-0.193578,0.480734,0.000917,0.014944,0.944584,1.101906,424.321722,90.373912,595.056821,
660,-0.193578,0.480734,0.000917,0.117555,0.872688,1.151983,413.054842,103.59204,544.072614,
661,-0.13945,0.493578,-0.025688,0.29953,0.733157,1.30384,410.788877,107.431591,498.816263,
662,-0.13945,0.493578,-0.025688,0.494064,0.581377,1.420508,416.202015,94.779954,468.98106,
663,-0.13945,0.493578,-0.025688,0.644507,0.412023,1.478706,423.818175,67.840151,445.314317,
664,-0.095413,0.488073,-0.055046,0.718794,0.21684,1.627585,427.657726,30.262902,415.793832,
665,-0.095413,0.488073,-0.055046,0.780788,0.113523,1.47654,429.986634,-9.706198,367.516194,
666,-0.06055,0.475229,-0.081651,0.821138,-0.024144,1.419966,410.096499,-46.528125,307.090467,
667,-0.06055,0.475229,-0.081651,0.78827,-0.148497,1.356625,365.658413,-86.560169,225.956341,
668,-0.06055,0.475229,-0.081651,0.725474,-0.183114,1.321164,290.566858,-121.430849,129.904613,
669,-0.034862,0.453211,-0.105505,0.66829,-0.128793,1.289223,185.010667,-154.035564,22.900721,
670,-0.034862,0.453211,-0.105505,0.559265,-0.051039,1.227506,55.095355,-185.822014,-81.396601,
671,-0.034862,0.453211,-0.105505,0.423786,0.001152,1.14684,-87.786312,-214.209517,-184.246223,
672,-0.034862,0.43578,-0.121101,0.293384,0.012336,1.033421,-225.632501,-240.331055,-286.907015,
673,-0.034862,0.43578,-0.121101,0.229787,-0.04305,0.903219,-353.596566,-263.871911,-393.029697,
674,-0.052294,0.434862,-0.122936,0.214288,-0.081661,0.78195,-469.853146,-282.880838,-499.655928,
675,-0.052294,0.434862,-0.122936,0.18142,-0.088318,0.735392,-569.933256,-297.106061,-600.428416,
676,-0.052294,0.434862,-0.122936,0.168861,-0.05024,0.67205,-653.899839,-300.567951,-694.906557,
677,-0.088073,0.445872,-0.10367,0.181688,0.039497,0.59328,-722.885877,-295.154813,-779.250801,
678,-0.088073,0.445872,-0.10367,0.205203,0.104735,0.559985,-779.346165,-286.972163,-849.055104,
679,-0.088073,0.445872,-0.10367,0.206271,0.177164,0.568918,-822.8401,-276.712378,-905.767166,
680,-0.140367,0.463303,-0.066055,0.122365,0.253054,0.621431,-844.177934,-268.403841,-953.918917,
681,-0.140367,0.463303,-0.066055,0.128244,0.376874,0.623326,-840.967818,-258.77349,-989.796692,
682,-0.211009,0.458716,-0.013761,-0.051059,0.565401,0.572166,-848.395147,-209.866418,-1008.679732,
683,-0.211009,0.458716,-0.013761,-0.16997,0.427734,0.90349,-808.551933,-212.887704,-999.175268,
684,-0.211009,0.458716,-0.013761,-0.044913,0.214443,1.058054,-721.249347,-240.331055,-935.980029,
685,-0.277064,0.434862,0.044037,0.001316,-0.074738,0.937056,-597.25072,-274.5723,-821.73764,
686,-0.277064,0.434862,0.044037,-0.118932,-0.284833,0.599505,-460.6634,-290.811714,-671.113927,
687,-0.277064,0.434862,0.044037,-0.378399,-0.18764,0.249774,-323.572533,-276.838265,-499.592984,
688,-0.322936,0.385321,0.09633,-0.662184,0.084232,-0.051503,-190.258273,-236.491504,-321.777695,
689,-0.322936,0.385321,0.09633,-0.836677,0.383265,-0.282402,-63.867795,-180.84948,-138.360437,
690,-0.355046,0.340367,0.131193,-0.751969,0.619722,-0.43859,47.730969,-113.374085,50.84762,
691,-0.355046,0.340367,0.131193,-1.025065,0.903843,-0.327066,164.302267,-31.547581,240.370394,
692,-0.355046,0.340367,0.131193,-1.115918,1.198083,-0.120529,279.237035,49.397716,411.702507,
693,-0.358716,0.331193,0.146789,-1.13302,1.36584,0.02456,391.21346,108.879291,565.913997,
694,-0.358716,0.331193,0.146789,-1.077172,1.470222,0.139874,500.483315,156.212777,698.472935,
695,-0.358716,0.331193,0.146789,-1.002084,1.479808,0.149348,597.668026,199.958485,796.538854,
696,-0.350459,0.354128,0.142202,-0.881035,1.488861,0.121738,668.920029,242.382381,855.390994,
697,-0.350459,0.354128,0.142202,-0.760787,1.485932,0.159635,711.280981,284.050955,884.282044,
698,-0.318349,0.404587,0.112844,-0.697991,1.438534,0.311762,736.898971,314.326761,891.83526,
699,-0.318349,0.404587,0.112844,-0.614886,1.344271,0.527773,767.426552,319.676956,893.597677,
700,-0.318349,0.404587,0.112844,-0.49357,1.217788,0.59355,803.36727,313.57144,890.954052,
701,-0.269725,0.449541,0.06422,-0.394432,1.083582,0.544285,833.202473,318.984578,878.554189,
702,-0.269725,0.449541,0.06422,-0.276055,0.859641,0.378081,838.175007,339.692978,855.202163,
703,-0.269725,0.449541,0.06422,-0.168367,0.608538,0.320695,829.299978,348.253289,823.604544,
704,-0.204587,0.477064,0.001835,-0.055067,0.342524,0.356697,810.353995,350.456311,786.84556,
705,-0.204587,0.477064,0.001835,0.051553,0.132162,0.332335,788.260839,357.002431,747.06529,
706,-0.133028,0.469725,-0.057798,0.148018,-0.088318,0.260331,752.50895,361.093756,703.382525,
707,-0.133028,0.469725,-0.057798,0.303271,-0.349805,0.217021,691.957337,355.743562,651.013562,
708,-0.133028,0.469725,-0.057798,0.371946,-0.569753,0.2874,623.474847,344.602568,605.190719,
709,-0.070642,0.446789,-0.110092,0.490858,-0.810737,0.396759,561.223759,331.636214,566.480488,
710,-0.070642,0.446789,-0.110092,0.548576,-0.972103,0.430595,512.820235,313.130836,533.561056,
711,-0.070642,0.446789,-0.110092,0.591331,-1.017903,0.453874,472.725247,290.093527,505.740044,
712,-0.011009,0.407339,-0.144954,0.625268,-1.01737,0.449543,440.81291,264.916141,483.33217,
713,-0.011009,0.407339,-0.144954,0.60202,-0.947605,0.491771,424.069948,239.990529,469.547551,
714,0.033945,0.36789,-0.162385,0.567014,-0.870117,0.535623,414.061937,216.890277,453.056363,
715,0.033945,0.36789,-0.162385,0.471084,-0.769463,0.60113,404.935135,198.888446,428.004864,
716,0.033945,0.36789,-0.162385,0.386109,-0.642714,0.616288,389.76576,181.453106,390.427615,
717,0.06789,0.333028,-0.172477,0.319839,-0.502917,0.60925,364.714261,160.744706,347.689003,
718,0.06789,0.333028,-0.172477,0.258379,-0.341018,0.564316,334.060793,137.770341,308.664054,
719,0.06789,0.333028,-0.172477,0.19585,-0.239033,0.501245,302.148456,112.844729,278.765908,
720,0.093578,0.294495,-0.178899,0.095376,-0.197493,0.470116,275.712201,91.192177,249.37131,
721,0.093578,0.294495,-0.178899,-0.027811,-0.188972,0.476612,259.032182,76.71518,213.430591,
722,0.106422,0.261468,-0.179817,-0.088469,-0.207345,0.458205,248.961228,76.90401,168.111296,
723,0.106422,0.261468,-0.179817,-0.096485,-0.186842,0.370773,234.547174,92.010442,117.69358,
724,0.106422,0.261468,-0.179817,-0.136835,-0.282969,0.431678,214.971757,112.152351,65.324617,
725,0.115596,0.234862,-0.179817,-0.114656,-0.395073,0.507471,197.284643,105.22857,18.935283,
726,0.115596,0.234862,-0.179817,-0.020061,-0.459779,0.547804,177.646282,84.016622,-21.789139,
727,0.115596,0.234862,-0.179817,0.118357,-0.511704,0.536164,157.378486,63.308222,-54.519741,
728,0.12844,0.217431,-0.175229,0.250095,-0.585996,0.558361,136.92186,47.131751,-81.144827,
729,0.12844,0.217431,-0.175229,0.370877,-0.66162,0.596257,114.199269,31.144111,-104.433909,
730,0.133028,0.20367,-0.174312,0.447034,-0.709018,0.673674,91.287847,9.932163,-127.219443,
731,0.133028,0.20367,-0.174312,0.509296,-0.711148,0.725918,65.795744,-18.64417,-151.515621,
732,0.133028,0.20367,-0.174312,0.579574,-0.664016,0.78574,37.660015,-51.626546,-180.406672,
733,0.13578,0.198165,-0.173394,0.643171,-0.580937,0.818764,7.950699,-89.140851,-213.07433,
734,0.13578,0.198165,-0.173394,0.729482,-0.485608,0.863157,-24.339299,-130.054104,-252.351052,
735,0.13578,0.198165,-0.173394,0.783995,-0.444335,0.869113,-61.413,-170.212035,-301.824616,
736,0.133945,0.198165,-0.173394,0.858281,-0.447264,0.965207,-112.208376,-208.922266,-365.586347,
737,0.133945,0.198165,-0.173394,0.975857,-0.469898,1.159292,-181.886792,-255.374543,-443.888017,
738,0.124771,0.212844,-0.179817,1.044264,-0.57854,1.323871,-274.791347,-309.317093,-529.554074,
739,0.124771,0.212844,-0.179817,1.145005,-0.662685,1.365828,-392.558571,-369.679876,-626.172293,
740,0.124771,0.212844,-0.179817,1.237729,-0.645377,1.337947,-528.327625,-437.218215,-727.070668,
741,0.10367,0.234862,-0.181651,1.316825,-0.527947,1.288411,-664.033737,-507.148405,-823.563,
742,0.10367,0.234862,-0.181651,1.402869,-0.37883,1.314397,-783.500434,-564.238128,-917.47465,
743,0.10367,0.234862,-0.181651,1.429324,-0.311993,1.234814,-882.258731,-596.087521,-1013.652265,
744,0.065138,0.288991,-0.187156,1.450167,-0.350072,1.145487,-967.547126,-601.060055,-1112.788223,
745,0.065138,0.288991,-0.187156,1.428789,-0.435814,1.117606,-1033.637765,-580.477542,-1207.077534,
746,-0.002752,0.352294,-0.175229,1.437073,-0.503183,1.18609,-1065.550102,-542.648519,-1284.875658,
747,-0.002752,0.352294,-0.175229,1.432263,-0.546054,1.355813,-1049.121857,-505.637761,-1325.159475,
748,-0.002752,0.352294,-0.175229,1.349426,-0.592387,1.47627,-975.037399,-482.411623,-1304.828736,
749,-0.097248,0.411927,-0.130275,1.235324,-0.615021,1.393439,-851.416433,-480.082714,-1216.015507,
750,-0.097248,0.411927,-0.130275,1.084614,-0.703692,1.077544,-711.304279,-484.236983,-1087.422007,
751,-0.097248,0.411927,-0.130275,0.934972,-0.771061,0.894557,-571.443899,-474.795463,-945.484493,
752,-0.195413,0.427523,-0.068807,0.713984,-0.874112,0.87615,-438.12964,-444.77143,-795.804932,
753,-0.195413,0.427523,-0.068807,0.473489,-0.916983,0.864781,-327.663858,-421.545292,-648.64311,
754,-0.272477,0.401835,-0.011009,0.237001,-0.879171,0.757047,-241.494254,-416.635701,-507.649748,
755,-0.272477,0.401835,-0.011009,-0.058006,-0.770795,0.548616,-179.054336,-413.110867,-379.559796,
756,-0.272477,0.401835,-0.011009,-0.373857,-0.589724,0.262767,-135.119798,-389.129407,-269.031071,
757,-0.318349,0.372477,0.02844,-0.686501,-0.375368,0.053524,-102.766856,-346.642568,-170.713378,
758,-0.318349,0.372477,0.02844,-0.91417,-0.200422,-0.070181,-82.687891,-296.161909,-83.662565,
759,-0.318349,0.372477,0.02844,-1.091869,-0.014026,-0.1679,-71.798671,-239.009242,-3.976138,
760,-0.336697,0.351376,0.061468,-1.170431,0.210981,-0.248566,-67.77029,-178.520572,73.507268,
761,-0.336697,0.351376,0.061468,-1.287205,0.557146,0.015357,-51.908536,-120.486697,158.669776,
762,-0.344954,0.350459,0.085321,-1.324081,0.738749,0.086548,-24.968733,-64.278183,229.418231,
763,-0.344954,0.350459,0.085321,-1.375386,0.829285,0.191305,1.656353,-7.314346,281.34659,
764,-0.344954,0.350459,0.085321,-1.375921,0.932335,0.323943,34.701672,45.11756,328.554189,
765,-0.340367,0.36055,0.09633,-1.308047,1.073464,0.425181,82.223988,91.821612,377.398318,
766,-0.340367,0.36055,0.09633,-1.272508,1.207935,0.466867,133.334082,132.546034,431.152038,
767,-0.340367,0.36055,0.09633,-1.256207,1.230303,0.481214,169.841292,169.871509,482.199188,
768,-0.326606,0.383486,0.09633,-1.185395,1.13817,0.454145,188.787275,209.462948,517.069868,
769,-0.326606,0.383486,0.09633,-1.106833,1.039646,0.482567,202.634837,250.942692,542.247254,
770,-0.30367,0.413761,0.081651,-0.910429,0.979467,0.475259,214.531152,306.207054,566.228714,
771,-0.30367,0.413761,0.081651,-0.676079,0.875351,0.576497,233.854796,358.827791,587.377718,
772,-0.30367,0.413761,0.081651,-0.464443,0.703334,0.658787,255.192631,395.649719,606.449588,
773,-0.272477,0.442202,0.061468,-0.239447,0.535045,0.731602,279.803526,429.765077,626.27678,
774,-0.272477,0.442202,0.061468,0.03258,0.465279,0.723481,313.541223,457.774919,657.748513,
775,-0.272477,0.442202,0.061468,0.351103,0.38859,0.827697,357.349875,488.113669,697.214065,
776,-0.227523,0.468807,0.024771,0.677375,0.260243,0.945176,403.676266,503.660705,740.456226,
777,-0.227523,0.468807,0.024771,0.995096,0.122576,1.007164,444.148914,517.256494,774.508641,
778,-0.168807,0.488991,-0.009174,1.318963,-0.098437,1.200166,461.836028,532.929416,788.041486,
779,-0.168807,0.488991,-0.009174,1.673026,-0.309863,1.455427,472.347586,528.397487,788.230316,
780,-0.168807,0.488991,-0.009174,1.952802,-0.481082,1.708251,477.571894,488.176613,785.20903,
781,-0.094495,0.491743,-0.051376,2.102176,-0.569487,1.693634,457.996476,426.051412,771.109694,
782,-0.094495,0.491743,-0.051376,2.212003,-0.658424,1.612697,410.537103,363.863269,744.421664,
783,-0.094495,0.491743,-0.051376,2.248611,-0.738308,1.508752,355.839232,311.116645,713.894084,
784,-0.013761,0.475229,-0.085321,2.161231,-0.830442,1.43323,303.029665,262.461346,682.548238,
785,-0.013761,0.475229,-0.085321,2.051138,-0.887958,1.329556,259.661617,216.76439,645.852198,
786,0.053211,0.447706,-0.104587,1.915392,-0.835235,1.170661,219.75546,179.187141,609.030271,
787,0.053211,0.447706,-0.104587,1.714444,-0.719136,1.07592,182.178211,154.890964,573.404269,
788,0.053211,0.447706,-0.104587,1.483302,-0.594517,1.108132,149.888213,137.644454,540.044233,
789,0.102752,0.420183,-0.113761,1.235859,-0.46404,1.144133,128.172718,118.509641,510.838465,
790,0.102752,0.420183,-0.113761,1.031705,-0.274448,1.130328,113.12923,93.772859,479.052015,
791,0.102752,0.420183,-0.113761,0.82194,-0.056364,1.048038,98.96695,71.679703,437.00578,
792,0.13578,0.392661,-0.116514,0.610304,0.181424,1.085664,91.602565,65.196526,382.244965,
793,0.13578,0.392661,-0.116514,0.480971,0.332672,1.254033,91.728452,69.980229,319.805047,
794,0.159633,0.36789,-0.115596,0.400538,0.153199,1.231566,91.602565,59.657501,258.81283,
795,0.159633,0.36789,-0.115596,0.368472,0.012602,1.149006,84.175236,40.333857,198.638877,
796,0.159633,0.36789,-0.115596,0.379428,-0.089383,1.081063,73.663677,29.759355,142.430362,
797,0.176147,0.349541,-0.118349,0.335337,-0.167137,0.959252,57.801924,23.465008,88.865473,
798,0.176147,0.349541,-0.118349,0.255707,-0.191635,0.906197,37.156467,20.758439,38.573644,
799,0.176147,0.349541,-0.118349,0.203599,-0.140509,0.884813,21.105883,20.506665,-2.528439,
800,0.180734,0.33945,-0.119266,0.206271,-0.080596,0.804688,14.433876,25.101538,-26.384012,
801,0.180734,0.33945,-0.119266,0.123969,-0.129325,0.665554,15.692745,38.57144,-30.538281,
802,0.184404,0.33578,-0.121101,0.065983,-0.134651,0.508554,21.357657,62.615844,-23.362726,
803,0.184404,0.33578,-0.121101,0.020823,-0.092578,0.388909,27.022569,93.080481,-5.109121,
804,0.184404,0.33578,-0.121101,-0.028078,0.013135,0.235969,38.792997,129.21003,24.663138,
805,0.186239,0.336697,-0.122018,-0.110915,0.111659,0.01265,70.327673,177.047064,65.072843,
806,0.186239,0.336697,-0.122018,-0.232499,0.185685,-0.122154,122.067202,238.92049,108.440891,
807,0.186239,0.336697,-0.122018,-0.19883,0.185152,-0.193074,162.980454,305.57762,140.856775,
808,0.192661,0.33211,-0.116514,0.088963,0.122576,-0.111326,180.793455,346.931476,162.572271,
809,0.192661,0.33211,-0.116514,0.468144,-0.041186,0.051629,197.536417,370.157615,187.309053,
810,0.210092,0.318349,-0.108257,0.818198,-0.317319,0.158552,217.174778,371.982976,206.758584,
811,0.210092,0.318349,-0.108257,1.13298,-0.592919,0.22866,225.92392,343.154869,209.716927,
812,0.210092,0.318349,-0.108257,1.379087,-0.807009,0.288754,215.790022,299.157386,190.89683,
813,0.236697,0.299083,-0.094495,1.552244,-0.928699,0.310138,182.429985,248.173179,148.032331,
814,0.236697,0.299083,-0.094495,1.608092,-0.952931,0.316364,133.900573,192.78293,90.250229,
815,0.236697,0.299083,-0.094495,1.603015,-0.893017,0.330169,80.839232,139.595702,24.285478,
816,0.259633,0.273394,-0.077064,1.601946,-0.746829,0.344516,35.58288,96.227654,-36.454966,
817,0.259633,0.273394,-0.077064,1.604618,-0.552977,0.352366,5.24413,49.901264,-80.641279,
818,0.268807,0.263303,-0.06789,1.540486,-0.40599,0.360757,-6.274524,2.06423,-110.350595,
819,0.268807,0.263303,-0.06789,1.520712,-0.265128,0.343974,-5.456259,-41.555592,-137.605115,
820,0.268807,0.263303,-0.06789,1.525255,-0.093111,0.393511,3.166996,-83.412996,-166.496166,
821,0.273394,0.26789,-0.06789,1.557588,0.054408,0.446295,18.714032,-131.25003,-199.793259,
822,0.273394,0.26789,-0.06789,1.67356,0.14521,0.406504,25.511926,-186.954996,-242.028324,
823,0.273394,0.26789,-0.06789,1.811444,0.155861,0.404609,16.007463,-250.402009,-294.019626,
824,0.265138,0.277982,-0.069725,1.956009,0.100475,0.431136,-0.106064,-311.960719,-357.214866,
825,0.265138,0.277982,-0.069725,2.109124,0.033639,0.481485,-25.661111,-370.057537,-431.991702,
826,0.252294,0.293578,-0.081651,2.271859,-0.071808,0.501245,-60.405904,-432.812172,-512.181677,
827,0.252294,0.293578,-0.081651,2.377677,-0.171131,0.438716,-104.843991,-490.657217,-595.644712,
828,0.252294,0.293578,-0.081651,2.366454,-0.260069,0.353178,-150.478003,-534.088208,-678.415369,
829,0.218349,0.320183,-0.104587,2.280677,-0.381226,0.170462,-195.167863,-565.748771,-759.549496,
830,0.218349,0.320183,-0.104587,2.167645,-0.523953,0.003176,-242.753123,-588.723136,-840.80951,
831,0.218349,0.320183,-0.104587,2.067705,-0.654696,-0.170607,-295.814464,-600.493564,-916.530498,
832,0.16789,0.355046,-0.124771,1.868896,-0.721799,-0.326795,-353.218905,-604.144285,-980.921664,
833,0.16789,0.355046,-0.124771,1.643899,-0.86852,-0.441297,-413.833462,-603.011302,-1032.912966,
834,0.097248,0.393578,-0.134862,1.381225,-1.143321,-0.466742,-463.118195,-595.269256,-1070.238441,
835,0.097248,0.393578,-0.134862,1.252159,-1.437561,-0.370917,-493.645776,-568.014735,-1088.240272,
836,0.097248,0.393578,-0.134862,0.95822,-1.55579,0.106309,-500.44367,-538.871911,-1071.937914,
837,0.000917,0.43578,-0.12844,1.22517,-1.510256,0.6485,-414.148179,-694.971705,-1048.271171,
838,0.000917,0.43578,-0.12844,1.006854,-1.469781,-0.326254,-433.912427,-697.174726,-916.530498,
839,0.000917,0.43578,-0.12844,0.389582,-1.423182,-0.425597,-391.740306,-617.614186,-750.35975,
840,-0.09633,0.455046,-0.099083,-0.136568,-1.323593,-0.364421,-276.868481,-559.832085,-547.430018,
841,-0.09633,0.455046,-0.099083,-0.464711,-1.264745,-0.330855,-135.497458,-522.191893,-330.023289,
842,-0.187156,0.451376,-0.06055,-0.656305,-1.073556,-0.294042,0.082766,-471.207686,-122.876344,
843,-0.187156,0.451376,-0.06055,-0.759718,-0.715142,-0.19145,118.164707,-402.914026,48.141051,
844,-0.187156,0.451376,-0.06055,-0.763994,-0.345811,-0.060978,202.634837,-342.236525,172.328508,
845,-0.230275,0.438532,-0.026606,-0.720704,-0.01589,0.014003,253.996705,-319.199217,247.420062,
846,-0.230275,0.438532,-0.026606,-0.767467,0.30125,-0.133252,266.522455,-317.814461,286.570898,
847,-0.230275,0.438532,-0.026606,-0.889051,0.616793,-0.250731,245.814055,-291.944697,299.537252,
848,-0.242202,0.441284,-0.011009,-1.075836,0.914228,-0.331667,201.124194,-245.933023,292.61347,
849,-0.242202,0.441284,-0.011009,-1.209979,1.088908,-0.292688,142.712658,-191.549869,265.296006,
850,-0.234862,0.448624,-0.012844,-1.320874,1.120862,-0.093731,82.916366,-125.459231,231.747139,
851,-0.234862,0.448624,-0.012844,-1.443259,1.073996,0.191576,36.464089,-63.648748,208.709831,
852,-0.234862,0.448624,-0.012844,-1.584617,0.997574,0.395405,17.895767,-27.393312,217.144255,
853,-0.223853,0.454128,-0.009174,-1.701124,0.865499,0.457123,37.785902,-6.999629,253.840296,
854,-0.223853,0.454128,-0.009174,-1.689901,0.645551,0.385661,81.720441,30.57762,302.810312,
855,-0.223853,0.454128,-0.009174,-1.574463,0.459954,0.321507,116.779951,79.925297,341.457599,
856,-0.213761,0.46422,-0.009174,-1.462766,0.353175,0.365359,137.047747,128.391765,373.558767,
857,-0.213761,0.46422,-0.009174,-1.381532,0.291931,0.517486,162.162189,177.298837,405.974651,
858,-0.191743,0.473394,-0.014679,-1.189136,0.271693,0.613852,193.256261,212.358348,436.879893,
859,-0.191743,0.473394,-0.014679,-0.932073,0.21391,0.664742,229.134036,238.479886,465.833887,
860,-0.191743,0.473394,-0.014679,-0.688906,0.136689,0.689104,274.956879,263.405498,493.151351,
861,-0.16055,0.479817,-0.027523,-0.414206,0.100741,0.745137,324.871047,287.827563,523.615988,
862,-0.16055,0.479817,-0.027523,-0.089805,0.070918,0.835818,379.505975,306.521772,555.654212,
863,-0.16055,0.479817,-0.027523,0.208676,0.005413,0.90728,433.574412,318.166313,587.188888,
864,-0.117431,0.484404,-0.050459,0.50983,-0.11681,0.97035,483.48858,320.558164,615.765221,
865,-0.117431,0.484404,-0.050459,0.706502,-0.246755,1.09189,529.185536,312.816118,634.2706,
866,-0.062385,0.477982,-0.079817,0.855342,-0.415044,1.122749,566.13335,298.527952,639.243134,
867,-0.062385,0.477982,-0.079817,0.888209,-0.534338,1.169578,593.513757,273.476452,622.877833,
868,-0.062385,0.477982,-0.079817,0.984942,-0.562031,1.284892,612.774457,236.717469,585.174697,
869,-0.002752,0.450459,-0.111927,1.376949,-0.598511,1.304111,598.612178,195.363612,533.246338,
870,-0.002752,0.450459,-0.111927,1.748915,-0.705023,1.488992,535.668712,147.274804,457.71418,
871,-0.002752,0.450459,-0.111927,2.040716,-0.871715,1.691739,446.351935,88.422664,346.052472,
872,0.044037,0.407339,-0.137615,2.18341,-0.98515,1.788104,332.235433,11.757524,204.240845,
873,0.044037,0.407339,-0.137615,2.179669,-1.085006,1.709063,191.05324,-91.973307,33.034619,
874,0.073394,0.36789,-0.155963,2.048733,-1.039472,1.412658,30.610347,-211.943552,-157.684081,
875,0.073394,0.36789,-0.155963,1.856604,-0.89781,1.000938,-145.379582,-312.023662,-342.423151,
876,0.073394,0.36789,-0.155963,1.484103,-0.780913,0.706699,-314.068069,-387.55582,-515.202964,
877,0.070642,0.354128,-0.166055,1.180812,-0.708219,0.370502,-469.979033,-430.546207,-664.63075,
878,0.070642,0.354128,-0.166055,0.878857,-0.683455,0.206464,-597.943098,-446.0303,-792.280098,
879,0.070642,0.354128,-0.166055,0.651188,-0.69384,0.136626,-694.938978,-430.923868,-898.40278,
880,0.02844,0.369725,-0.163303,0.477764,-0.692242,0.053253,-762.099656,-396.99734,-984.446498,
881,0.02844,0.369725,-0.163303,0.359921,-0.645377,0.051629,-812.328541,-350.356232,-1054.313744,
882,-0.043119,0.415596,-0.142202,0.272541,-0.594783,0.238676,-838.198305,-309.065319,-1107.81569,
883,-0.043119,0.415596,-0.142202,0.352172,-0.580138,0.511531,-835.806453,-280.363099,-1132.300698,
884,-0.043119,0.415596,-0.142202,0.518381,-0.578274,0.76598,-812.265597,-266.893197,-1119.900835,
885,-0.118349,0.447706,-0.09633,0.601218,-0.614222,1.031526,-768.079285,-277.278869,-1073.007953,
886,-0.118349,0.447706,-0.09633,0.554722,-0.786505,1.210182,-697.708491,-310.764793,-988.223105,
887,-0.118349,0.447706,-0.09633,0.467877,-1.011246,1.120854,-588.879239,-365.147947,-858.62251,
888,-0.197248,0.450459,-0.041284,0.247156,-1.109237,0.842585,-449.900068,-386.674612,-681.247825,
889,-0.197248,0.450459,-0.041284,-0.0548,-0.977428,0.376186,-303.304737,-356.021144,-478.63281,
890,-0.26422,0.426606,0.005505,-0.405656,-0.662152,-0.033909,-166.654474,-306.044033,-266.765106,
891,-0.26422,0.426606,0.005505,-0.742082,-0.239831,-0.289169,-49.705515,-243.604115,-55.841554,
892,-0.26422,0.426606,0.005505,-0.966277,0.199265,-0.395009,41.75134,-172.981547,133.618277,
893,-0.30367,0.404587,0.043119,-1.026668,0.573389,-0.351428,105.576014,-105.946757,289.718071,
894,-0.30367,0.404587,0.043119,-0.987654,0.850054,-0.184412,149.069948,-50.052959,404.652839,
895,-0.30367,0.404587,0.043119,-0.904283,1.080121,-0.003591,176.387412,-5.426042,475.023633,
896,-0.301835,0.409174,0.058716,-0.841219,1.282228,0.14204,187.213688,29.255807,503.725853,
897,-0.301835,0.409174,0.058716,-0.816368,1.413504,0.237593,182.492929,56.950932,496.676185,
898,-0.283486,0.434862,0.054128,-0.789646,1.455843,0.297957,164.616984,79.107032,456.707084,
899,-0.283486,0.434862,0.054128,-0.704404,1.426552,0.338019,132.38993,93.521085,389.987011,
900,-0.283486,0.434862,0.054128,-0.591104,1.353058,0.421392,92.043169,99.563658,308.726998,
901,-0.249541,0.455963,0.047706,-0.415275,1.248676,0.486086,57.990754,98.682449,228.222305,
902,-0.249541,0.455963,0.047706,-0.324689,1.181574,0.48365,33.379859,99.500714,164.964123,
903,-0.249541,0.455963,0.047706,-0.391226,1.139501,0.560526,17.392219,111.837633,131.415256,
904,-0.225688,0.473394,0.03211,-0.522964,1.077192,0.682607,27.966721,130.091238,136.073072,
905,-0.225688,0.473394,0.03211,-0.681424,0.966685,0.747031,72.656582,150.988469,183.343615,
906,-0.212844,0.479817,0.027523,-0.71349,0.90837,0.782221,140.824354,174.781099,263.659476,
907,-0.212844,0.479817,0.027523,-0.713757,0.872688,0.790883,222.462029,201.783845,360.970074,
908,-0.212844,0.479817,0.027523,-0.668597,0.80745,0.798192,315.807188,237.032186,466.022717,
909,-0.19633,0.488073,0.016514,-0.618093,0.733424,0.826614,416.013185,281.910877,572.963665,
910,-0.19633,0.488073,0.016514,-0.494639,0.661794,0.968997,526.038362,333.713349,677.260987,
911,-0.19633,0.488073,0.016514,-0.317474,0.539039,1.095951,643.176151,375.381923,774.193924,
912,-0.159633,0.491743,-0.007339,-0.102899,0.338796,1.131952,753.075442,403.517652,845.068266,
913,-0.159633,0.491743,-0.007339,0.082283,0.071184,1.114087,844.658184,421.015935,884.785592,
914,-0.099083,0.487156,-0.048624,0.223373,-0.200688,1.097845,918.553812,437.947727,891.331713,
915,-0.099083,0.487156,-0.048624,0.334803,-0.391878,1.023135,970.608058,470.552442,863.510701,
916,-0.099083,0.487156,-0.048624,0.440621,-0.622743,0.886978,984.707394,498.058737,825.241074,
917,-0.018349,0.455046,-0.10367,0.429932,-0.886627,0.823366,967.334998,500.198815,763.367648,
918,-0.018349,0.455046,-0.10367,0.43394,-1.12548,0.708593,926.358802,490.631408,678.708687,
919,-0.018349,0.455046,-0.10367,0.502348,-1.400015,0.779514,872.101535,459.852053,580.265107,
920,0.057798,0.388991,-0.144037,0.642904,-1.420519,0.708052,823.69801,413.462719,471.247025,
921,0.057798,0.388991,-0.144037,0.926154,-1.45913,0.536705,750.809477,371.982976,364.369021,
922,0.114679,0.311009,-0.16422,1.141531,-1.579488,0.460912,656.834883,320.306391,260.197586,
923,0.114679,0.311009,-0.16422,1.23479,-1.704108,0.383224,545.676723,261.517194,147.151122,
924,0.114679,0.311009,-0.16422,1.262848,-1.774672,0.296062,404.746305,189.635757,29.006238,
925,0.150459,0.244954,-0.163303,1.240669,-1.729138,0.276573,242.352164,102.270227,-85.802643,
926,0.150459,0.244954,-0.163303,1.185622,-1.621295,0.3031,67.432274,9.86922,-192.051213,
927,0.150459,0.244954,-0.163303,1.063771,-1.489486,0.369419,-95.339527,-76.803932,-281.997425,
928,0.165138,0.207339,-0.156881,0.90157,-1.332114,0.482026,-223.303592,-146.041744,-358.284905,
929,0.165138,0.207339,-0.156881,0.747386,-1.147848,0.502599,-314.44573,-189.787452,-423.746108,
930,0.168807,0.212844,-0.155046,0.619923,-0.980357,0.551323,-376.633874,-214.209517,-480.961718,
931,0.168807,0.212844,-0.155046,0.513571,-0.816329,0.608709,-412.448706,-223.651037,-529.742904,
932,0.168807,0.212844,-0.155046,0.451844,-0.718071,0.669614,-427.806911,-225.224623,-568.641966,
933,0.151376,0.249541,-0.16055,0.455318,-0.643246,0.743512,-426.107438,-220.62975,-598.225394,
934,0.151376,0.249541,-0.16055,0.487384,-0.570019,0.818764,-412.322819,-211.314117,-619.563229,
935,0.151376,0.249541,-0.16055,0.510097,-0.490668,0.866406,-391.173814,-197.907159,-633.473735,
936,0.129358,0.297248,-0.165138,0.561403,-0.368445,0.920544,-370.465414,-183.367219,-644.362954,
937,0.129358,0.297248,-0.165138,0.610571,-0.23131,0.955192,-351.960036,-169.77143,-651.91617,
938,0.098165,0.341284,-0.162385,0.681918,-0.125863,0.982532,-332.510505,-157.560398,-655.692778,
939,0.098165,0.341284,-0.162385,0.762885,-0.024677,1.045873,-306.829571,-145.475253,-652.797379,
940,0.098165,0.341284,-0.162385,0.874849,0.140417,1.170932,-273.343647,-136.977885,-635.173208,
941,0.063303,0.381651,-0.151376,1.018611,0.292463,1.242123,-228.276126,-140.188002,-602.820267,
942,0.063303,0.381651,-0.151376,1.147677,0.348116,1.27244,-181.635018,-155.168546,-564.865358,
943,0.063303,0.381651,-0.151376,1.266054,0.326813,1.287328,-143.805996,-178.205855,-540.128576,
944,0.020183,0.409174,-0.144954,1.361184,0.366489,1.353647,-118.250949,-203.823845,-537.925555,
945,0.020183,0.409174,-0.144954,1.398327,0.426935,1.473021,-105.095765,-230.574818,-555.990329,
946,-0.016514,0.422936,-0.133028,1.411955,0.512145,1.537446,-105.158708,-264.438402,-588.091496,
947,-0.016514,0.422936,-0.133028,1.371872,0.582176,1.490616,-118.125062,-303.589238,-631.648374,
948,-0.016514,0.422936,-0.133028,1.355839,0.575253,1.31954,-150.352116,-350.419176,-694.717727,
949,-0.061468,0.42844,-0.130275,1.165313,0.597887,1.330097,-191.894803,-395.109036,-761.123083,
950,-0.061468,0.42844,-0.130275,1.053349,0.633568,1.203144,-232.115678,-418.649892,-836.592298,
951,-0.061468,0.42844,-0.130275,0.919207,0.667919,1.108132,-265.853375,-428.657903,-909.858491,
952,-0.117431,0.421101,-0.115596,0.778116,0.605076,1.003645,-287.065323,-422.992991,-968.899462,
953,-0.117431,0.421101,-0.115596,0.648248,0.54969,0.861804,-291.219592,-408.893655,-1008.050297,
954,-0.186239,0.404587,-0.095413,0.553921,0.467409,0.71509,-289.583061,-392.150693,-1025.989185,
955,-0.186239,0.404587,-0.095413,0.464403,0.273025,0.602483,-284.421697,-372.701163,-1022.716124,
956,-0.186239,0.404587,-0.095413,0.390384,0.058136,0.555924,-275.924329,-350.041515,-997.853456,
957,-0.255963,0.370642,-0.069725,0.287773,-0.207878,0.484462,-255.027099,-330.214323,-945.484493,
958,-0.255963,0.370642,-0.069725,0.163784,-0.421967,0.413271,-225.695444,-314.856118,-865.672179,
959,-0.255963,0.370642,-0.069725,0.050217,-0.633927,0.359945,-191.139482,-299.938517,-768.991016,
960,-0.308257,0.322936,-0.037615,-0.118397,-0.791298,0.252481,-155.198763,-282.440233,-660.350595,
961,-0.308257,0.322936,-0.037615,-0.355953,-0.84775,0.139604,-126.181825,-258.836434,-537.610837,
962,-0.342202,0.27156,-0.013761,-0.64428,-0.823518,0.12661,-96.976058,-225.917001,-394.666227,
963,-0.342202,0.27156,-0.013761,-0.901076,-0.756149,0.112805,-58.706431,-186.325562,-229.124914,
964,-0.342202,0.27156,-0.013761,-1.119392,-0.648572,0.037824,-13.261249,-139.684454,-43.378748,
965,-0.355046,0.233028,0.007339,-1.305643,-0.467235,0.007778,32.058046,-82.154127,150.801843,
966,-0.355046,0.233028,0.007339,-1.41921,-0.265128,0.011838,76.244359,-13.419863,345.234207,
967,-0.355046,0.233028,0.007339,-1.39329,-0.02734,0.012921,114.95459,49.775377,517.636359,
968,-0.363303,0.224771,0.022018,-1.299497,0.255716,0.074909,136.544199,109.760499,645.978085,
969,-0.363303,0.224771,0.022018,-1.180852,0.548891,0.186704,150.769422,172.389247,736.113127,
970,-0.358716,0.254128,0.017431,-1.015178,0.769638,0.268181,162.35102,234.577391,796.28708,
971,-0.358716,0.254128,0.017431,-0.837211,0.884937,0.363464,173.366126,288.834658,832.101912,
972,-0.358716,0.254128,0.017431,-0.601526,0.908636,0.486086,185.514215,335.475766,847.774835,
973,-0.338532,0.306422,0.004587,-0.307052,0.88041,0.596799,203.138385,373.682449,851.425556,
974,-0.338532,0.306422,0.004587,0.024029,0.84393,0.696683,225.546259,399.48927,852.558538,
975,-0.338532,0.306422,0.004587,0.427527,0.769638,0.771123,249.842436,415.036306,857.153411,
976,-0.305505,0.358716,-0.020183,0.822741,0.636231,0.833923,267.718381,414.658645,869.867991,
977,-0.305505,0.358716,-0.020183,1.150349,0.441847,0.822554,283.454247,399.615157,885.792688,
978,-0.249541,0.4,-0.052294,1.403404,0.262107,0.794402,296.735318,379.536191,897.122511,
979,-0.249541,0.4,-0.052294,1.585111,0.09222,0.71915,303.470269,357.820696,900.584402,
980,-0.249541,0.4,-0.052294,1.727004,-0.058228,0.68748,301.078417,333.524518,895.926586,
981,-0.186239,0.42844,-0.080734,1.823202,-0.15329,0.6642,290.692745,304.948185,884.093214,
982,-0.186239,0.42844,-0.080734,1.848053,-0.172995,0.652019,274.075671,274.231774,865.524892,
983,-0.186239,0.42844,-0.080734,1.836028,-0.121603,0.66393,254.563196,243.263589,844.753548,
984,-0.118349,0.438532,-0.109174,1.779645,0.000354,0.706428,237.442574,210.784761,822.660392,
985,-0.118349,0.438532,-0.109174,1.696541,0.130831,0.774642,227.93811,179.816576,801.826105,
986,-0.050459,0.43578,-0.124771,1.585646,0.265303,0.873985,229.637584,149.91843,779.795892,
987,-0.050459,0.43578,-0.124771,1.438142,0.400307,0.982261,246.443489,119.894397,752.730202,
988,-0.050459,0.43578,-0.124771,1.33847,0.530252,0.987404,260.668712,92.89165,716.72654,
989,0.005505,0.426606,-0.13945,1.201388,0.60481,1.102447,276.341635,49.271829,671.784905,
990,0.005505,0.426606,-0.13945,1.084347,0.604278,1.154961,292.392219,-4.418947,611.73684,
991,0.005505,0.426606,-0.13945,0.957686,0.512411,1.045873,298.497735,-64.718787,527.140822,
992,0.045872,0.400917,-0.148624,0.924551,0.39578,0.849352,269.417854,-127.788139,406.66703,
993,0.045872,0.400917,-0.148624,0.935774,0.219502,0.732956,195.648113,-197.718329,249.056592,
994,0.070642,0.373394,-0.158716,0.942454,0.095948,0.727271,85.308218,-270.292145,62.995709,
995,0.070642,0.373394,-0.158716,0.902105,0.043757,0.670968,-43.474112,-341.481204,-129.863069,
996,0.070642,0.373394,-0.158716,0.795752,0.083966,0.516133,-181.635018,-406.879464,-318.189917,
997,0.066055,0.351376,-0.168807,0.564342,0.118582,0.343162,-323.635476,-462.269714,-502.299553,
998,0.066055,0.351376,-0.168807,0.356982,0.09941,0.200779,-444.86459,-498.52515,-670.547436,
999,0.066055,0.351376,-0.168807,0.221503,0.062929,0.097917,-542.364018,-513.442751,-825.0107,
1000,0.027523,0.36422,-0.169725,0.16325,-0.02734,0.144205,-604.237445,-496.951563,-952.34533,
1001,0.027523,0.36422,-0.169725,0.123434,-0.154355,0.183185,-626.771205,-455.597706,-1037.633726,
1002,-0.03945,0.398165,-0.154128,0.130115,-0.370309,0.235428,-618.651498,-410.530185,-1071.49731,
1003,-0.03945,0.398165,-0.154128,0.218296,-0.594517,0.29904,-586.109727,-374.211806,-1051.355401,
1004,-0.03945,0.398165,-0.154128,0.281627,-0.793695,0.284152,-536.069672,-349.286193,-987.782501,
1005,-0.120183,0.419266,-0.121101,0.325985,-0.915918,0.209171,-479.73527,-328.892511,-899.221046,
1006,-0.120183,0.419266,-0.121101,0.303538,-0.920977,0.179936,-421.827282,-310.009471,-796.812027,
1007,-0.120183,0.419266,-0.121101,0.194247,-0.837099,0.134731,-366.185259,-286.216841,-682.317864,
1008,-0.197248,0.417431,-0.083486,-0.017122,-0.682123,0.089526,-311.298557,-256.255752,-547.115301,
1009,-0.197248,0.417431,-0.083486,-0.181995,-0.348474,0.17371,-254.712382,-227.427645,-367.537594,
1010,-0.248624,0.4,-0.052294,-0.589234,0.052012,0.302017,-175.277728,-175.058681,-129.737182,
1011,-0.248624,0.4,-0.052294,-0.836944,0.447172,0.394593,-58.5176,-96.127576,162.698158,
1012,-0.248624,0.4,-0.052294,-0.973759,0.748069,0.445212,105.387184,-30.162824,502.970531,
1013,-0.274312,0.390826,-0.02844,-1.176844,1.231368,0.013191,208.48858,82.065374,782.691291,
1014,-0.274312,0.390826,-0.02844,-0.96307,1.269979,0.640109,317.821379,186.362696,981.529698,
1015,-0.274312,0.390826,-0.02844,-0.565184,1.314181,0.743242,416.202015,223.877002,1108.612555,
1016,-0.261468,0.408257,-0.023853,-0.295829,1.542916,0.974411,492.993043,253.712204,1176.213837,
1017,-0.261468,0.408257,-0.023853,-0.091141,1.714933,1.222904,565.126254,265.79735,1217.819467,
1018,-0.2,0.446789,-0.045872,0.019487,1.821446,1.355813,636.944748,262.398403,1247.780557,
1019,-0.2,0.446789,-0.045872,-0.056403,1.816386,1.285433,726.513299,277.378947,1264.145858,
1020,-0.2,0.446789,-0.045872,0.029374,1.628126,1.000938,791.282125,305.011129,1235.254807,
1021,-0.113761,0.457798,-0.084404,0.059035,1.323235,0.846916,827.663448,314.830309,1166.64643,
1022,-0.113761,0.457798,-0.084404,0.107936,1.060949,0.879669,832.258321,307.277093,1062.537938,
1023,-0.113761,0.457798,-0.084404,0.229787,0.827687,1.024218,821.054384,295.632552,940.049955,
1024,-0.022936,0.43211,-0.125688,0.430199,0.642622,1.115982,803.36727,289.527036,822.534505,
1025,-0.022936,0.43211,-0.125688,0.520786,0.438651,1.14657,774.727994,267.496823,720.754922,
1026,0.044954,0.368807,-0.159633,0.56167,0.231485,1.051557,732.618815,234.514447,626.46561,
1027,0.044954,0.368807,-0.159633,0.51464,0.032041,0.888061,672.885467,197.566633,531.232147,
1028,0.044954,0.368807,-0.159633,0.43688,-0.183114,0.720775,594.709683,161.248254,432.09619,
1029,0.088991,0.300917,-0.177064,0.34656,-0.415577,0.57,501.931015,123.230401,329.246567,
1030,0.088991,0.300917,-0.177064,0.238338,-0.632595,0.392157,395.682446,82.254205,222.997998,
1031,0.088991,0.300917,-0.177064,0.125037,-0.816595,0.217021,283.831908,40.082083,117.567693,
1032,0.110092,0.242202,-0.179817,0.014944,-0.964647,0.072743,172.044313,-0.075848,16.354601,
1033,0.110092,0.242202,-0.179817,-0.087934,-1.037608,-0.024164,65.292196,-33.939432,-80.515392,
1034,0.119266,0.204587,-0.180734,-0.131224,-1.078082,-0.025247,-35.039688,-61.571613,-171.594586,
1035,0.119266,0.204587,-0.180734,-0.165962,-1.142789,-0.056917,-124.608239,-89.455569,-255.875886,
1036,0.119266,0.204587,-0.180734,-0.183331,-1.233058,-0.142455,-210.589012,-118.72428,-342.863756,
1037,0.113761,0.201835,-0.182569,-0.152334,-1.340635,-0.187931,-299.716959,-144.908762,-438.789597,
1038,0.113761,0.201835,-0.182569,-0.031819,-1.433833,-0.147057,-386.704828,-168.701391,-542.898088,
1039,0.113761,0.201835,-0.182569,0.125305,-1.4799,-0.02281,-461.733439,-191.172209,-646.188315,
1040,0.107339,0.222018,-0.187156,0.311288,-1.460195,0.195095,-517.69018,-212.824761,-742.55476,
1041,0.107339,0.222018,-0.187156,0.498874,-1.389897,0.434926,-551.742594,-237.687429,-826.64723,
1042,0.090826,0.266055,-0.184404,0.647714,-1.239448,0.618724,-568.926161,-274.824074,-896.955081,
1043,0.090826,0.266055,-0.184404,0.722535,-1.071958,0.69939,-581.703684,-313.911966,-954.296578,
1044,0.090826,0.266055,-0.184404,0.732956,-0.938551,0.75434,-597.502494,-343.684225,-1001.37829,
1045,0.053211,0.322936,-0.179817,0.671764,-0.847217,0.817952,-611.161226,-362.12666,-1033.542401,
1046,0.053211,0.322936,-0.179817,0.62794,-0.763339,0.92325,-617.95912,-378.995509,-1046.319924,
1047,0.053211,0.322936,-0.179817,0.608433,-0.690378,0.999856,-609.839413,-401.969874,-1039.773804,
1048,-0.00367,0.374312,-0.168807,0.59053,-0.616618,0.935161,-591.774638,-427.461977,-1022.023746,
1049,-0.00367,0.374312,-0.168807,0.534147,-0.465105,0.849081,-575.912885,-446.470904,-1002.951876,
1050,-0.080734,0.408257,-0.136697,0.482039,-0.250216,0.862345,-565.716044,-463.8433,-991.684996,
1051,-0.080734,0.408257,-0.136697,0.475092,-0.019618,0.981449,-550.420782,-481.656301,-989.230201,
1052,-0.080734,0.408257,-0.136697,0.502081,0.176099,1.120042,-530.59359,-499.721076,-996.972247,
1053,-0.16055,0.421101,-0.1,0.529871,0.343855,1.208016,-517.123689,-521.688345,-1018.247138,
1054,-0.16055,0.421101,-0.1,0.473489,0.43226,1.196647,-506.360356,-542.144971,-1048.082341,
1055,-0.16055,0.421101,-0.1,0.313426,0.49244,1.128704,-490.183885,-553.915399,-1073.700331,
1056,-0.233945,0.406422,-0.056881,0.154699,0.470605,1.124644,-463.432913,-552.090039,-1084.400721,
1057,-0.233945,0.406422,-0.056881,0.123167,0.384596,1.142509,-426.107438,-551.20883,-1080.561169,
1058,-0.299083,0.362385,-0.004587,0.086558,0.218171,1.117606,-378.585121,-549.068752,-1063.062886,
1059,-0.299083,0.362385,-0.004587,0.047277,0.064527,1.072671,-320.928907,-538.242476,-1030.647001,
1060,-0.299083,0.362385,-0.004587,-0.057739,0.02352,1.020969,-248.921583,-530.059826,-969.528896,
1061,-0.353211,0.298165,0.044954,-0.21513,0.041893,0.911611,-162.437261,-530.815147,-883.925783,
1062,-0.353211,0.298165,0.044954,-0.43879,0.053876,0.755423,-76.204714,-525.716727,-798.763275,
1063,-0.353211,0.298165,0.044954,-0.743418,0.065326,0.5072,-12.568871,-511.491504,-729.399576,
1064,-0.377064,0.225688,0.089908,-1.061139,0.041627,0.298498,21.357657,-490.216612,-686.723907,
1065,-0.377064,0.225688,0.089908,-1.422951,0.03284,0.264121,47.290365,-443.638448,-639.327477,
1066,-0.378899,0.159633,0.133028,-1.567782,-0.065684,0.103872,65.795744,-390.199446,-574.306878,
1067,-0.378899,0.159633,0.133028,-1.507659,-0.182049,-0.039052,87.8889,-300.505008,-456.28788,
1068,-0.378899,0.159633,0.133028,-1.699253,-0.229447,-0.081009,109.163791,-227.931192,-338.961261,
1069,-0.368807,0.111927,0.166972,-1.692038,-0.210274,0.00101,117.724103,-175.625173,-227.614271,
1070,-0.368807,0.111927,0.166972,-1.618821,-0.330367,0.009943,123.263128,-128.480517,-123.442835,
1071,-0.368807,0.111927,0.166972,-1.45662,-0.426228,-0.000343,131.949326,-89.581456,-30.727111,
1072,-0.355963,0.086239,0.190826,-1.328356,-0.301342,0.07166,141.768506,-64.341126,48.392825,
1073,-0.355963,0.086239,0.190826,-1.156535,-0.116277,0.245443,140.069033,-53.32602,94.845102,
1074,-0.355963,0.086239,0.190826,-0.964139,0.010472,0.567835,137.677181,-56.284362,108.566778,
1075,-0.347706,0.077982,0.200917,-0.851374,0.112724,0.765168,143.46798,-74.663854,89.117247,
1076,-0.347706,0.077982,0.200917,-0.790983,0.1753,0.803876,138.873107,-104.876718,36.748284,
1077,-0.347706,0.089908,0.211009,-0.816903,0.151867,0.787906,120.053011,-140.754493,-32.867189,
1078,-0.347706,0.089908,0.211009,-0.899473,0.09728,0.70724,92.483773,-182.989558,-109.595273,
1079,-0.347706,0.089908,0.211009,-1.062475,0.0371,0.579474,59.879058,-224.909906,-180.280785,
1080,-0.349541,0.097248,0.218349,-0.896533,-0.331965,0.952214,40.051866,-267.019084,-232.209143,
1081,-0.349541,0.097248,0.218349,-1.267698,-0.293088,0.283881,48.863952,-330.214323,-238.31466,
1082,-0.349541,0.097248,0.218349,-1.602788,-0.288561,-0.081821,6.062395,-301.575047,-262.422007,
1083,-0.341284,0.088991,0.234862,-1.919173,-0.31652,-0.150847,-26.794094,-264.627233,-269.219901,
1084,-0.341284,0.088991,0.234862,-2.112104,-0.354598,-0.150305,-34.662027,-251.472048,-262.48495,
1085,-0.326606,0.075229,0.258716,-2.164211,-0.395339,-0.215812,-26.353489,-239.32396,-251.595731,
1086,-0.326606,0.075229,0.258716,-2.102484,-0.463241,-0.305681,-23.835751,-215.216612,-241.335946,
1087,-0.326606,0.075229,0.258716,-2.062668,-0.461909,-0.303786,-29.500663,-176.946985,-222.452906,
1088,-0.309174,0.056881,0.272477,-2.055454,-0.358859,-0.227723,-19.052047,-142.391023,-189.09287,
1089,-0.309174,0.056881,0.272477,-1.99533,-0.288295,-0.205255,11.034929,-108.401552,-145.913653,
1090,-0.309174,0.056881,0.272477,-1.840077,-0.293886,-0.221767,32.624538,-77.873971,-120.925097,
1091,-0.292661,0.040367,0.287156,-1.588893,-0.285898,-0.14814,31.617442,-51.185942,-126.967669,
1092,-0.292661,0.040367,0.287156,-1.402642,-0.23424,-0.056376,17.392219,-31.673467,-154.914568,
1093,-0.285321,0.033028,0.292661,-1.219331,-0.2156,0.056231,1.908127,-28.526294,-192.1771,
1094,-0.285321,0.033028,0.292661,-0.900542,-0.148231,0.280362,-10.869397,-31.925241,-228.621366,
1095,-0.285321,0.033028,0.292661,-0.62611,-0.106691,0.424369,-20.688578,-49.927072,-261.414911,
1096,-0.277982,0.024771,0.297248,-0.512008,-0.122135,0.348035,-29.941267,-89.644399,-301.761673,
1097,-0.277982,0.024771,0.297248,-0.423559,-0.171131,0.16965,-52.097367,-139.873284,-353.752975,
1098,-0.277982,0.024771,0.297248,-0.336714,-0.258471,0.053524,-85.835064,-163.03648,-398.128118,
1099,-0.262385,0.010092,0.298165,-0.301708,-0.32584,0.111452,-110.697733,-169.645543,-415.878175,
1100,-0.262385,0.010092,0.298165,-0.401915,-0.368711,0.21675,-118.376836,-178.457629,-402.848878,
1101,-0.240367,-0.012844,0.3,-0.485019,-0.347142,0.26006,-107.361729,-191.990474,-367.411707,
1102,-0.240367,-0.012844,0.3,-0.594845,-0.270187,0.258436,-85.457403,-201.431993,-320.707656,
1103,-0.240367,-0.012844,0.3,-0.690776,-0.142905,0.266286,-60.720621,-198.347764,-271.422922,
1104,-0.208257,-0.033945,0.30367,-0.738074,-0.057962,0.323131,-37.998031,-188.276809,-229.943179,
1105,-0.208257,-0.033945,0.30367,-0.798197,-0.072607,0.333688,-8.603432,-172.289169,-189.2817,
1106,-0.208257,-0.033945,0.30367,-0.88531,-0.172995,0.221081,31.869216,-142.51691,-133.199073,
1107,-0.185321,-0.049541,0.305505,-1.02453,-0.304271,0.042426,75.677868,-99.46358,-58.485179,
1108,-0.185321,-0.049541,0.305505,-1.183792,-0.455519,-0.166547,118.416481,-35.261245,33.726998,
1109,-0.162385,-0.057798,0.309174,-1.254604,-0.552178,-0.308929,153.979539,26.738068,122.792001,
1110,-0.162385,-0.057798,0.309174,-1.344122,-0.610228,-0.397986,184.444176,77.029897,196.687629,
1111,-0.162385,-0.057798,0.309174,-1.432303,-0.693573,-0.486502,210.250997,127.195839,261.393512,
1112,-0.161468,-0.050459,0.319266,-1.498573,-0.788369,-0.59965,234.232457,186.929188,327.987698,
1113,-0.161468,-0.050459,0.319266,-1.407452,-0.822453,-0.766125,243.422203,245.718384,407.925899,
1114,-0.161468,-0.050459,0.319266,-1.458758,-1.009116,-0.795359,259.976334,306.899433,476.59722,
1115,-0.178899,-0.037615,0.325688,-1.535984,-1.120954,-0.919335,275.019823,367.010442,545.26854,
1116,-0.178899,-0.037615,0.325688,-1.622829,-1.165422,-1.061447,289.433876,439.332484,624.45142,
1117,-0.212844,-0.006422,0.331193,-1.574196,-1.080213,-1.206537,293.714032,513.668716,703.508412,
1118,-0.212844,-0.006422,0.331193,-1.537052,-0.964381,-1.323204,284.524286,583.913623,775.893397,
1119,-0.212844,-0.006422,0.331193,-1.555223,-0.867721,-1.306421,264.130603,660.075216,835.941463,
1120,-0.259633,0.033028,0.322936,-1.548543,-0.785174,-1.191649,248.898284,741.33523,880.75721,
1121,-0.259633,0.033028,0.322936,-1.419744,-0.628601,-1.105299,243.233373,815.79735,922.992276,
1122,-0.259633,0.033028,0.322936,-1.285868,-0.504514,-1.040333,240.65269,875.341868,963.968472,
1123,-0.312844,0.089908,0.297248,-1.107367,-0.389747,-0.980511,241.219182,922.549467,996.699073,
1124,-0.312844,0.089908,0.297248,-0.817437,-0.303472,-0.922583,249.590663,960.063772,1017.973965,
1125,-0.359633,0.158716,0.245872,-0.490363,-0.28936,-0.797795,259.221013,987.884784,1031.003262,
1126,-0.359633,0.158716,0.245872,-0.069229,-0.281371,-0.643231,270.865554,1012.558622,1033.269227,
1127,-0.359633,0.158716,0.245872,0.343354,-0.355397,-0.420995,282.950699,1023.384898,1029.555562,
1128,-0.377064,0.244954,0.176147,0.820336,-0.49626,-0.119176,301.393135,1024.14022,1024.708916,
1129,-0.377064,0.244954,0.176147,1.313886,-0.662152,0.331252,340.229253,1013.817492,1031.192092,
1130,-0.377064,0.244954,0.176147,1.572018,-0.766534,0.621161,400.466149,986.814745,1051.648719,
1131,-0.357798,0.326606,0.093578,1.551175,-0.723663,0.718338,443.267705,917.765763,1053.474079,
1132,-0.357798,0.326606,0.093578,1.589387,-0.691976,0.834464,463.535501,832.917972,1030.310884,
1133,-0.299083,0.390826,0.011009,1.502541,-0.596914,0.95844,476.942459,758.644683,993.866618,
1134,-0.299083,0.390826,0.011009,1.211275,-0.463507,0.999044,489.216435,698.974278,951.379778,
1135,-0.299083,0.390826,0.011009,1.002044,-0.404393,0.87994,489.782926,644.842898,888.247483,
1136,-0.211009,0.431193,-0.055963,0.90157,-0.383357,0.655538,464.353766,597.068808,800.567236,
1137,-0.211009,0.431193,-0.055963,0.902372,-0.459247,0.506118,407.641704,542.874484,688.842585,
1138,-0.211009,0.431193,-0.055963,0.99857,-0.563096,0.489605,336.704419,491.827334,566.354601,
1139,-0.122018,0.434862,-0.10367,1.142066,-0.712479,0.529938,270.047289,445.312113,441.411822,
1140,-0.122018,0.434862,-0.10367,1.321101,-0.771327,0.567023,213.20934,397.223305,329.813058,
1141,-0.050459,0.424771,-0.133028,1.463795,-0.715941,0.675299,163.421059,341.895999,246.538854,
1142,-0.050459,0.424771,-0.133028,1.435737,-0.535403,0.87209,129.368644,283.673294,197.946499,
1143,-0.050459,0.424771,-0.133028,1.20887,-0.279774,0.936514,106.394279,222.869906,166.474766,
1144,0.001835,0.410092,-0.146789,0.965435,-0.060358,0.81714,69.005861,158.793459,131.981747,
1145,0.001835,0.410092,-0.146789,0.682719,0.065326,0.689645,13.363837,103.906757,91.131438,
1146,0.001835,0.410092,-0.146789,0.376489,0.058403,0.623597,-39.697504,71.99442,43.231461,
1147,0.026606,0.400917,-0.148624,0.20547,0.002217,0.568647,-69.217989,73.756837,2.758813,
1148,0.026606,0.400917,-0.148624,0.077473,-0.02734,0.676652,-68.840329,95.849993,-17.823701,
1149,0.040367,0.39633,-0.147706,0.040062,-0.033997,0.732685,-51.782649,122.412136,-23.362726,
1150,0.040367,0.39633,-0.147706,0.035787,-0.036926,0.783845,-28.745341,142.616988,-18.641966,
1151,0.040367,0.39633,-0.147706,0.083886,-0.038523,0.714549,-12.694757,158.604628,-8.256294,
1152,0.044037,0.4,-0.144037,0.19585,-0.089117,0.688562,-1.30199,171.004491,3.136473,
1153,0.044037,0.4,-0.144037,0.382902,-0.156219,0.744325,16.636897,180.886615,19.438831,
1154,0.044037,0.4,-0.144037,0.633552,-0.210274,0.757318,39.611262,184.474392,39.832514,
1155,0.053211,0.402752,-0.138532,0.871107,-0.239831,0.744054,58.99785,178.557707,61.170348,
1156,0.053211,0.402752,-0.138532,1.080873,-0.230778,0.783845,68.942917,164.017766,72.689003,
1157,0.066972,0.40367,-0.137615,1.261512,-0.174593,0.819847,74.356055,142.050497,74.325533,
1158,0.066972,0.40367,-0.137615,1.375346,-0.168202,0.823637,78.195606,109.94933,66.583486,
1159,0.066972,0.40367,-0.137615,1.439211,-0.143704,0.850706,79.391532,70.35789,43.04263,
1160,0.083486,0.395413,-0.13945,1.46807,-0.096573,0.896723,80.08391,26.612181,5.465382,
1161,0.083486,0.395413,-0.13945,1.436272,-0.060625,0.926499,83.797575,-23.994365,-44.448786,
1162,0.083486,0.395413,-0.13945,1.356641,0.000354,0.874526,84.112292,-78.94401,-105.818665,
1163,0.090826,0.390826,-0.137615,1.289837,0.063728,0.803064,73.223073,-129.109952,-179.273689,
1164,0.090826,0.390826,-0.137615,1.19257,0.144411,0.749468,52.074068,-169.141996,-262.359063,
1165,0.086239,0.386239,-0.143119,1.032507,0.234414,0.702909,26.896682,-201.117276,-344.689116,
1166,0.086239,0.386239,-0.143119,0.848394,0.316695,0.648771,-3.442068,-226.924097,-420.661879,
1167,0.086239,0.386239,-0.143119,0.727077,0.405632,0.641462,-31.829571,-247.31778,-480.961718,
1168,0.066972,0.385321,-0.148624,0.668557,0.431728,0.705074,-48.88725,-267.711462,-521.49731,
1169,0.066972,0.385321,-0.148624,0.777849,0.443178,0.769769,-54.992766,-289.364015,-551.899004,
1170,0.066972,0.385321,-0.148624,0.92749,0.412023,0.879399,-51.027328,-313.660192,-576.509899,
1171,0.031193,0.391743,-0.150459,1.103586,0.382732,0.988216,-44.795925,-341.292373,-606.596875,
1172,0.031193,0.391743,-0.150459,1.349159,0.355838,1.015556,-40.263995,-376.037166,-645.181219,
1173,-0.013761,0.398165,-0.152294,1.566406,0.343323,0.990652,-37.8092,-420.9788,-685.905642,
1174,-0.013761,0.398165,-0.152294,1.724866,0.307907,0.906197,-38.312748,-467.494021,-731.28788,
1175,-0.013761,0.398165,-0.152294,1.908444,0.267167,0.887249,-44.921812,-511.113843,-785.985751,
1176,-0.06422,0.39633,-0.144954,2.147603,0.171306,0.856119,-54.929823,-562.28688,-844.649061,
1177,-0.06422,0.39633,-0.144954,2.319157,-0.073672,0.776537,-68.14795,-615.033504,-902.305275,
1178,-0.06422,0.39633,-0.144954,2.360041,-0.310662,0.589219,-85.39446,-663.625859,-959.709716,
1179,-0.134862,0.382569,-0.133945,2.200245,-0.563362,0.387826,-106.732295,-709.700476,-1005.217841,
1180,-0.134862,0.382569,-0.133945,1.890273,-0.839495,0.188598,-121.524009,-744.571156,-1027.059224,
1181,-0.209174,0.348624,-0.111009,1.546098,-1.15983,-0.124319,-123.412313,-760.684683,-1022.149633,
1182,-0.209174,0.348624,-0.111009,1.232919,-1.388033,-0.345743,-119.635705,-758.292831,-991.496166,
1183,-0.209174,0.348624,-0.111009,0.935507,-1.56218,-0.474321,-109.18709,-751.55788,-938.371881,
1184,-0.284404,0.302752,-0.074312,0.703562,-1.62236,-0.57583,-96.724284,-745.137647,-868.567578,
1185,-0.284404,0.302752,-0.074312,0.513037,-1.474308,-0.664074,-87.093933,-736.010844,-791.713607,
1186,-0.284404,0.302752,-0.074312,0.261318,-1.266076,-0.669759,-69.78448,-718.1349,-707.747024,
1187,-0.33578,0.243119,-0.021101,-0.006433,-1.165689,-0.629426,-54.740992,-696.922952,-629.508297,
1188,-0.33578,0.243119,-0.021101,-0.332171,-1.067165,-0.327878,-42.592903,-682.760673,-549.129491,
1189,-0.362385,0.188073,0.03211,-0.496509,-1.146783,-0.260476,52.82939,-777.931192,-409.96149,
1190,-0.362385,0.188073,0.03211,-0.772277,-0.761475,-1.119375,28.596156,-702.210204,-285.774032,
1191,-0.362385,0.188073,0.03211,-1.238304,-0.644844,-1.026257,21.987092,-549.068752,-189.218757,
1192,-0.368807,0.144037,0.087156,-1.474256,-0.50265,-0.835692,0.712201,-469.571156,-121.869249,
1193,-0.368807,0.144037,0.087156,-1.849162,-0.253678,-0.53658,-12.254153,-434.637532,-65.283073,
1194,-0.368807,0.144037,0.087156,-1.965134,0.157459,-0.196323,-16.723139,-398.130323,-38.406214,
1195,-0.366972,0.123853,0.134862,-1.957919,0.37714,0.009402,-7.973998,-368.735724,-26.761673,
1196,-0.366972,0.123853,0.134862,-1.719829,0.336399,0.168026,-17.667291,-367.099194,-45.392938,
1197,-0.365138,0.118349,0.17156,-1.455819,0.150536,0.303912,-28.493567,-379.624944,-88.949816,
1198,-0.365138,0.118349,0.17156,-1.374852,0.013934,0.27576,-22.702768,-388.185255,-135.33915,
1199,-0.365138,0.118349,0.17156,-1.385808,0.039763,0.202133,-17.226687,-412.733207,-180.721389,
1200,-0.356881,0.121101,0.2,-1.445664,0.059734,0.160988,-18.989104,-436.714667,-232.460917,
1201,-0.356881,0.121101,0.2,-1.45475,0.006744,0.135272,-15.212496,-451.569325,-283.948672,
1202,-0.356881,0.121101,0.2,-1.545069,-0.13971,-0.021728,-7.47045,-458.241332,-336.443522,
1203,-0.347706,0.107339,0.224771,-1.59103,-0.329035,-0.134876,-11.184114,-453.520572,-377.860322,
1204,-0.347706,0.107339,0.224771,-1.689099,-0.552977,-0.187931,-22.576882,-434.259872,-395.736266,
1205,-0.330275,0.090826,0.256881,-1.832595,-0.780381,-0.279154,-16.471365,-394.038997,-366.089894,
1206,-0.330275,0.090826,0.256881,-1.941886,-0.945475,-0.492728,7.510095,-341.0406,-290.935397,
1207,-0.330275,0.090826,0.256881,-2.062134,-0.998465,-0.624554,34.638728,-282.062573,-195.953707,
1208,-0.301835,0.066055,0.287156,-2.125732,-0.927101,-0.595319,55.976563,-219.056164,-114.001316,
1209,-0.301835,0.066055,0.287156,-2.173563,-0.767067,-0.480005,69.887069,-159.763419,-56.282158,
1210,-0.301835,0.066055,0.287156,-2.196544,-0.62008,-0.39149,84.489953,-113.059368,-23.929217,
1211,-0.279817,0.050459,0.30367,-2.2238,-0.4912,-0.378767,102.302954,-78.188688,-9.074559,
1212,-0.279817,0.050459,0.30367,-2.23823,-0.410251,-0.41098,117.535272,-43.129178,-1.080739,
1213,-0.268807,0.052294,0.316514,-2.189864,-0.419571,-0.509781,125.529092,-4.607777,5.905986,
1214,-0.268807,0.052294,0.316514,-2.122525,-0.440607,-0.610478,126.787962,35.67604,15.599279,
1215,-0.268807,0.052294,0.316514,-2.036481,-0.4454,-0.634028,126.03264,74.449215,26.425556,
1216,-0.268807,0.055046,0.323853,-1.843283,-0.42676,-0.612102,118.668255,104.599135,27.432651,
1217,-0.268807,0.055046,0.323853,-1.616683,-0.365516,-0.580702,97.078646,120.146171,9.304933,
1218,-0.268807,0.055046,0.323853,-1.371912,-0.251015,-0.479193,60.949097,121.719758,-28.398203,
1219,-0.272477,0.063303,0.327523,-1.126073,-0.125331,-0.320028,11.286703,108.69046,-84.48083,
1220,-0.272477,0.063303,0.327523,-0.886913,-0.04811,-0.155178,-42.592903,86.219643,-150.94913,
1221,-0.272477,0.065138,0.322936,-0.618628,-0.054234,-0.020374,-91.311146,57.706253,-215.717956,
1222,-0.272477,0.065138,0.322936,-0.398441,-0.13039,0.072472,-129.266055,23.213234,-265.632124,
1223,-0.272477,0.065138,0.322936,-0.256816,-0.207079,0.124445,-154.946989,-13.293976,-295.467326,
1224,-0.276147,0.062385,0.318349,-0.191882,-0.288561,0.132024,-169.738703,-40.107892,-301.321068,
1225,-0.276147,0.062385,0.318349,-0.142447,-0.347941,0.162883,-172.75999,-61.256896,-286.844071,
1226,-0.276147,0.062385,0.318349,-0.141645,-0.379895,0.218916,-169.046325,-79.699332,-257.638303,
1227,-0.266055,0.036697,0.310092,-0.211122,-0.385753,0.3031,-161.87077,-88.448473,-218.109807,
1228,-0.266055,0.036697,0.310092,-0.293959,-0.364184,0.398112,-147.51966,-85.553074,-170.776321,
1229,-0.251376,0.014679,0.309174,-0.38989,-0.268856,0.465514,-122.656991,-84.734809,-115.134298,
1230,-0.251376,0.014679,0.309174,-0.476201,-0.147432,0.482567,-86.086838,-86.056622,-61.569409,
1231,-0.251376,0.014679,0.309174,-0.526438,0.017928,0.5386,-50.020232,-80.706427,-21.348535,
1232,-0.238532,-0.000917,0.306422,-0.590035,0.166246,0.624409,-22.828655,-65.851769,4.206512,
1233,-0.238532,-0.000917,0.306422,-0.692112,0.191277,0.656892,1.593409,-46.402238,29.635672,
1234,-0.238532,-0.000917,0.306422,-0.749029,0.162785,0.630364,28.784986,-33.813545,56.386645,
1235,-0.23211,-0.007339,0.305505,-0.741815,0.078374,0.580828,56.039507,-31.044033,75.647345,
1236,-0.23211,-0.007339,0.305505,-0.69612,0.036035,0.51099,77.062624,-31.421694,86.033017,
1237,-0.231193,-0.006422,0.306422,-0.658176,0.012336,0.445483,84.867614,-34.44298,89.18019,
1238,-0.231193,-0.006422,0.306422,-0.657374,-0.017487,0.422474,84.930557,-38.471362,88.550756,
1239,-0.231193,-0.006422,0.306422,-0.658443,-0.098703,0.375916,82.97931,-42.499743,89.557851,
1240,-0.238532,0.000917,0.312844,-0.684897,-0.219062,0.259519,82.916366,-41.681478,97.111067,
1241,-0.238532,0.000917,0.312844,-0.800068,-0.324775,0.125528,82.538706,-31.862298,118.637732,
1242,-0.238532,0.000917,0.312844,-0.971621,-0.4454,0.068683,83.734631,-9.895028,155.774377,
1243,-0.238532,0.008257,0.319266,-1.153329,-0.570552,-0.000614,94.120303,22.332026,208.017453,
1244,-0.238532,0.008257,0.319266,-1.357483,-0.670407,-0.08155,112.940399,69.539625,279.458286,
1245,-0.245872,0.020183,0.322936,-1.504719,-0.736977,-0.13271,131.949326,123.922779,356.18637,
1246,-0.245872,0.020183,0.322936,-1.714217,-0.767866,-0.193616,151.021196,182.460202,432.28502,
1247,-0.245872,0.020183,0.322936,-2.004415,-0.745764,-0.293229,177.079791,255.474621,517.195755,
1248,-0.257798,0.037615,0.325688,-2.193872,-0.582534,-0.393385,209.055071,338.874713,609.219101,
1249,-0.257798,0.037615,0.325688,-2.201621,-0.321846,-0.544971,230.078188,410.37849,692.870966,
1250,-0.257798,0.037615,0.325688,-2.229679,-0.037991,-0.83109,217.804213,474.32905,756.443866,
1251,-0.280734,0.069725,0.320183,-2.407913,0.104735,-1.008121,173.42907,555.777894,790.496281,
1252,-0.280734,0.069725,0.320183,-2.482466,0.153465,-1.089599,121.689541,647.864184,791.503377,
1253,-0.321101,0.122936,0.301835,-2.39188,0.209117,-1.060906,74.293112,728.998311,773.375659,
1254,-0.321101,0.122936,0.301835,-2.09901,0.273824,-0.917711,37.093524,790.619964,744.988156,
1255,-0.321101,0.122936,0.301835,-1.740137,0.2898,-0.715506,15.252141,836.128089,718.174239,
1256,-0.352294,0.184404,0.263303,-1.283731,0.255716,-0.486502,6.125339,866.907443,696.20697,
1257,-0.352294,0.184404,0.263303,-0.7346,0.194738,-0.268055,12.293798,878.363154,683.177673,
1258,-0.352294,0.184404,0.263303,-0.119733,0.041893,-0.046631,26.959626,875.530698,676.379778,
1259,-0.368807,0.243119,0.201835,0.938179,-0.10536,0.579474,70.768278,873.705338,696.144027,
1260,-0.368807,0.243119,0.201835,1.270063,0.093285,0.993088,179.97519,861.179588,776.271058,
1261,-0.366055,0.290826,0.134862,0.990286,0.496168,0.819035,246.569376,769.65979,830.024777,
1262,-0.366055,0.290826,0.134862,0.845187,0.731826,0.903219,280.24413,686.952076,835.689689,
1263,-0.366055,0.290826,0.134862,0.793615,0.759785,0.920814,306.932159,641.003346,800.756066,
1264,-0.337615,0.345872,0.06789,0.887675,0.773099,0.876692,305.610347,585.235436,727.426929,
1265,-0.337615,0.345872,0.06789,1.073391,0.784283,0.937326,275.33454,504.038366,631.312257,
1266,-0.337615,0.345872,0.06789,1.111068,0.781088,1.034233,232.595927,413.966267,523.678932,
1267,-0.288073,0.394495,0.012844,1.079804,0.779756,1.081875,190.046144,330.943836,413.968472,
