,,,,,,,,,,
,,,,,,,,,,
,,,,,,,,,,
,,,,,,,,,,
,,,,,,,,,,
,,,,,,,,,,
,,,,,,,,,,
,,,,,,,,,,
,,,,,,,,,,
index,Geomagnetism_X,Geomagnetism_Y,Geomagnetism_Z,Acceleration_X,Acceleration_Y,Acceleration_Z,Angular_velocity_X,Angular_velocity_Y,Angular_velocity_Z, 
1,-0.192661,0.422936,-0.107339,-0.455625,0.290067,1.101635,-249.173357,56.258554,24.411365,
2,-0.192661,0.422936,-0.107339,-0.47433,0.422941,1.277313,-225.506614,78.855258,9.367876,
3,-0.230275,0.414679,-0.081651,-0.427835,0.550223,1.420237,-190.006499,101.451962,0.429904,
4,-0.230275,0.414679,-0.081651,-0.331904,0.633302,1.470585,-148.212038,118.761415,0.304017,
5,-0.230275,0.414679,-0.081651,-0.235438,0.62132,1.50794,-107.361729,128.832369,6.53542,
6,-0.230275,0.414679,-0.081651,-0.177987,0.60268,1.51958,-70.413915,129.084143,10.626746,
7,-0.230275,0.414679,-0.081651,-0.123474,0.5662,1.542589,-38.438635,121.719758,11.570898,
8,-0.222018,0.437615,-0.072477,-0.098356,0.528654,1.55883,-8.351658,111.648803,10.500859,
9,-0.222018,0.437615,-0.072477,-0.091676,0.49457,1.561537,18.776975,99.878375,9.241989,
10,-0.222018,0.437615,-0.072477,-0.123474,0.449835,1.536904,42.884322,89.42976,6.787194,
11,-0.215596,0.440367,-0.072477,-0.129888,0.402703,1.545566,63.278005,81.687714,2.192321,
12,-0.215596,0.440367,-0.072477,-0.121871,0.356903,1.499008,80.209797,77.596388,-2.339608,
13,-0.215596,0.440367,-0.072477,-0.09408,0.317227,1.456239,92.546717,72.749742,-7.123311,
14,-0.210092,0.440367,-0.080734,-0.03556,0.27622,1.398311,101.044084,65.4483,-11.340524,
15,-0.210092,0.440367,-0.080734,0.049148,0.220035,1.347692,106.77194,54.496137,-14.676527,
16,-0.202752,0.436697,-0.084404,0.109806,0.180892,1.301675,109.415565,39.704422,-17.508983,
17,-0.202752,0.436697,-0.084404,0.177679,0.149471,1.250785,112.122134,19.877231,-19.837891,
18,-0.202752,0.436697,-0.084404,0.206271,0.124706,1.18988,113.884551,-2.278869,-19.900835,
19,-0.20367,0.429358,-0.093578,0.226313,0.085031,1.156314,113.066286,-25.630895,-19.712005,
20,-0.20367,0.429358,-0.093578,0.216426,0.058669,1.10353,110.23383,-48.79409,-19.208457,
21,-0.20367,0.429358,-0.093578,0.195048,0.023254,1.082957,105.072466,-70.572529,-18.327248,
22,-0.201835,0.422018,-0.101835,0.168594,0.002484,1.033963,99.533441,-88.700247,-17.194266,
23,-0.201835,0.422018,-0.101835,0.133054,-0.0087,0.98199,93.742642,-102.799583,-15.054188,
24,-0.208257,0.415596,-0.101835,0.08923,-0.020416,0.889414,86.818861,-115.388276,-12.91411,
25,-0.208257,0.415596,-0.101835,0.05663,-0.033997,0.798192,78.06972,-127.662252,-11.08875,
26,-0.208257,0.415596,-0.101835,0.047812,-0.052104,0.697766,65.35514,-139.24385,-8.759842,
27,-0.213761,0.406422,-0.1,0.00479,-0.075004,0.610062,50.437538,-148.433596,-5.172064,
28,-0.213761,0.406422,-0.1,-0.05667,-0.086188,0.571624,37.974732,-153.720847,-2.528439,
29,-0.213761,0.406422,-0.1,-0.124276,-0.074738,0.513697,26.141361,-154.790886,-0.451304,
30,-0.221101,0.4,-0.099083,-0.165695,-0.056364,0.427347,12.419685,-149.692465,4.773003,
31,-0.221101,0.4,-0.099083,-0.22475,-0.072341,0.354802,-6.715128,-138.677359,14.906901,
32,-0.233028,0.398165,-0.092661,-0.320948,-0.129059,0.297416,-31.514854,-124.829796,24.222534,
33,-0.233028,0.398165,-0.092661,-0.40619,-0.192167,0.259519,-59.713526,-107.520343,30.894542,
34,-0.233028,0.398165,-0.092661,-0.466848,-0.232908,0.260602,-90.052276,-79.636388,36.49651,
35,-0.241284,0.401835,-0.086239,-0.468184,-0.218795,0.298228,-123.664087,-40.674383,41.343157,
36,-0.241284,0.401835,-0.086239,-0.45803,-0.150894,0.337748,-155.702311,1.497739,46.504521,
37,-0.241284,0.401835,-0.086239,-0.419016,-0.043316,0.413812,-181.949736,37.942005,50.65879,
38,-0.240367,0.406422,-0.080734,-0.386149,0.04642,0.491771,-200.518058,67.210717,54.876002,
39,-0.240367,0.406422,-0.080734,-0.346868,0.095948,0.580557,-214.428564,87.667343,57.456684,
40,-0.241284,0.416514,-0.07156,-0.329231,0.148139,0.703721,-221.478232,104.095587,55.316606,
41,-0.241284,0.416514,-0.07156,-0.309725,0.195271,0.79765,-223.429479,120.272058,47.889277,
42,-0.241284,0.416514,-0.07156,-0.332438,0.245598,0.932454,-221.226458,132.797807,39.958401,
43,-0.23211,0.431193,-0.065138,-0.353014,0.328145,1.078897,-211.218447,141.043401,28.439746,
44,-0.23211,0.431193,-0.065138,-0.300105,0.450368,1.229942,-191.013595,154.135642,16.039884,
45,-0.23211,0.431193,-0.065138,-0.190279,0.570194,1.308171,-164.640283,165.843127,12.011502,
46,-0.224771,0.443119,-0.058716,-0.080987,0.633835,1.38207,-135.938063,162.695953,17.550527,
47,-0.224771,0.443119,-0.058716,0.010401,0.638362,1.44514,-105.032821,149.100165,25.166686,
48,-0.214679,0.455046,-0.056881,0.074801,0.642089,1.506587,-74.945845,130.468899,28.754464,
49,-0.214679,0.455046,-0.056881,0.12771,0.627977,1.53907,-46.495398,108.249856,29.887446,
50,-0.214679,0.455046,-0.056881,0.123434,0.617858,1.552063,-20.18503,83.135413,31.209259,
51,-0.205505,0.462385,-0.061468,0.078542,0.592295,1.57859,5.118243,56.699158,29.572729,
52,-0.205505,0.462385,-0.061468,0.001316,0.566998,1.596185,28.910873,32.654754,24.033704,
53,-0.205505,0.462385,-0.061468,-0.070298,0.539039,1.600516,50.437538,11.946354,15.536336,
54,-0.199083,0.466055,-0.062385,-0.124543,0.504422,1.596997,69.005861,-2.027095,5.213608,
55,-0.199083,0.466055,-0.062385,-0.145119,0.49244,1.581027,86.189427,-10.146802,-5.109121,
56,-0.195413,0.466055,-0.06055,-0.13737,0.474333,1.532303,102.114123,-15.55994,-12.977054,
57,-0.195413,0.466055,-0.06055,-0.101563,0.448237,1.512001,117.157612,-22.294891,-19.397287,
58,-0.195413,0.466055,-0.06055,-0.06148,0.415485,1.46057,130.375739,-31.35875,-24.684538,
59,-0.19633,0.461468,-0.065138,-0.031017,0.38433,1.388837,141.579676,-41.744422,-29.468242,
60,-0.19633,0.461468,-0.065138,-0.006433,0.339062,1.334428,149.132892,-52.948359,-32.174811,
61,-0.19633,0.461468,-0.065138,-0.001356,0.303647,1.257552,156.056673,-64.655843,-33.559567,
62,-0.201835,0.453211,-0.072477,0.007195,0.264237,1.206663,160.085055,-75.985667,-34.692549,
63,-0.201835,0.453211,-0.072477,-0.008571,0.233083,1.160104,163.169285,-85.553074,-35.699645,
64,-0.200917,0.43945,-0.076147,-0.009373,0.189679,1.084311,163.421059,-94.616933,-36.769684,
65,-0.200917,0.43945,-0.076147,-0.023268,0.150003,1.006894,162.665737,-104.436113,-37.462062,
66,-0.200917,0.43945,-0.076147,-0.02888,0.106333,0.929206,161.847472,-115.64005,-38.469157,
67,-0.211927,0.430275,-0.077982,-0.04224,0.062929,0.816057,160.777433,-124.829796,-40.168631,
68,-0.211927,0.430275,-0.077982,-0.031552,0.018194,0.688292,155.427238,-132.571842,-40.546292,
69,-0.211927,0.430275,-0.077982,-0.014984,-0.045447,0.555654,145.671001,-138.866189,-38.280327,
70,-0.222018,0.419266,-0.086239,0.005859,-0.108289,0.433843,131.005174,-145.223479,-32.930132,
71,-0.222018,0.419266,-0.086239,-0.018725,-0.173794,0.292814,111.366813,-153.217299,-27.202277,
72,-0.230275,0.407339,-0.085321,-0.057472,-0.238234,0.199697,86.189427,-162.910593,-22.35563,
73,-0.230275,0.407339,-0.085321,-0.092744,-0.285099,0.102519,57.235433,-170.841469,-17.194266,
74,-0.230275,0.407339,-0.085321,-0.130689,-0.312792,0.006966,21.294714,-170.086148,-6.242103,
75,-0.23945,0.398165,-0.083486,-0.214863,-0.367114,-0.072347,-22.325108,-164.106519,6.34659,
76,-0.23945,0.398165,-0.083486,-0.33992,-0.410517,-0.083716,-75.701166,-150.133069,18.368792,
77,-0.23945,0.398165,-0.083486,-0.427835,-0.413713,-0.053669,-131.594963,-122.941492,27.117934,
78,-0.249541,0.400917,-0.075229,-0.453755,-0.33516,0.034035,-186.166948,-85.175413,37.125945,
79,-0.249541,0.400917,-0.075229,-0.470055,-0.194031,0.131212,-233.43749,-43.758613,48.078108,
80,-0.255963,0.402752,-0.06422,-0.472727,-0.042251,0.230285,-269.189379,-3.789512,55.442493,
81,-0.255963,0.402752,-0.06422,-0.447609,0.088759,0.320424,-293.296726,31.018224,58.149062,
82,-0.255963,0.402752,-0.06422,-0.430774,0.198999,0.479319,-305.759532,58.461575,60.981518,
83,-0.256881,0.417431,-0.052294,-0.46765,0.287936,0.612499,-308.466101,77.848162,60.792688,
84,-0.256881,0.417431,-0.052294,-0.544074,0.355039,0.771393,-303.304737,95.472332,53.050641,
85,-0.256881,0.417431,-0.052294,-0.674476,0.420544,0.937056,-290.841931,111.96352,37.94421,
86,-0.251376,0.43211,-0.037615,-0.764261,0.523328,1.159563,-264.279788,125.93697,12.074445,
87,-0.251376,0.43211,-0.037615,-0.71055,0.654072,1.271358,-226.639596,146.204766,-12.095845,
88,-0.244954,0.451376,-0.03211,-0.573201,0.752596,1.327661,-189.314121,180.446011,-22.292687,
89,-0.244954,0.451376,-0.03211,-0.385614,0.773632,1.361497,-153.939894,205.434566,-17.571927,
90,-0.244954,0.451376,-0.03211,-0.18627,0.760851,1.398311,-119.132157,206.819323,-9.011615,
91,-0.23945,0.459633,-0.024771,-0.009105,0.751264,1.436749,-85.079743,191.209343,-3.598477,
92,-0.23945,0.459633,-0.024771,0.107936,0.749134,1.46057,-55.559257,166.031957,1.562887,
93,-0.23945,0.459633,-0.024771,0.165654,0.75446,1.482766,-26.857037,130.154182,8.864329,
94,-0.23211,0.466972,-0.025688,0.164853,0.75872,1.514708,0.145709,91.821612,17.046979,
95,-0.23211,0.466972,-0.025688,0.096712,0.704932,1.538258,25.008378,56.510327,19.816492,
96,-0.225688,0.466972,-0.03211,-0.035827,0.638095,1.528513,48.549234,24.597991,16.543431,
97,-0.225688,0.466972,-0.03211,-0.166496,0.571259,1.53934,68.439369,1.938343,7.227799,
98,-0.225688,0.466972,-0.03211,-0.245325,0.539838,1.518768,85.685879,-11.216841,-4.794403,
99,-0.217431,0.466972,-0.034862,-0.261626,0.51747,1.49982,102.302954,-17.19647,-15.935397,
100,-0.217431,0.466972,-0.034862,-0.237042,0.486848,1.469773,117.283498,-22.420778,-26.635786,
101,-0.217431,0.466972,-0.034862,-0.212725,0.44664,1.417801,131.823439,-28.08569,-36.454966,
102,-0.220183,0.463303,-0.036697,-0.176918,0.409627,1.375573,145.293341,-36.07951,-46.777695,
103,-0.220183,0.463303,-0.036697,-0.124543,0.38646,1.328473,157.063769,-44.954539,-56.093328,
104,-0.222936,0.457798,-0.044037,-0.077513,0.376874,1.258635,167.890045,-56.662023,-62.1359,
105,-0.222936,0.457798,-0.044037,-0.045981,0.336666,1.18582,176.70213,-70.320755,-64.905413,
106,-0.222936,0.457798,-0.044037,-0.041973,0.293795,1.113275,182.996476,-83.035335,-65.597791,
107,-0.230275,0.447706,-0.049541,-0.050524,0.216041,1.028007,188.409614,-92.728629,-67.04549,
108,-0.230275,0.447706,-0.049541,-0.050524,0.130831,0.940304,190.990296,-100.155958,-67.611982,
109,-0.230275,0.447706,-0.049541,-0.060678,0.078374,0.864511,192.186222,-105.065548,-66.982547,
110,-0.23578,0.43578,-0.057798,-0.065755,0.031242,0.68775,187.654293,-103.680792,-64.024204,
111,-0.23578,0.43578,-0.057798,-0.052127,-0.036926,0.553488,170.659557,-101.037166,-56.533932,
112,-0.244954,0.422018,-0.059633,-0.048921,-0.111484,0.435467,150.077044,-100.911279,-47.533016,
113,-0.244954,0.422018,-0.059633,-0.049188,-0.186043,0.320424,124.39611,-103.617848,-38.972705,
114,-0.244954,0.422018,-0.059633,-0.049722,-0.225452,0.206464,93.994416,-101.729544,-28.146429,
115,-0.253211,0.409174,-0.061468,-0.067626,-0.296815,0.082488,56.165394,-97.386445,-13.921206,
116,-0.253211,0.409174,-0.061468,-0.146722,-0.367646,0.018605,10.279607,-101.729544,-2.339608,
117,-0.253211,0.409174,-0.061468,-0.173177,-0.399333,-0.097521,-40.263995,-101.792488,9.179046,
118,-0.26055,0.401835,-0.061468,-0.210053,-0.374836,-0.068557,-98.990248,-82.657674,20.005322,
119,-0.26055,0.401835,-0.061468,-0.251204,-0.27072,-0.001155,-156.646463,-58.676214,29.761559,
120,-0.265138,0.399083,-0.056881,-0.297165,-0.119473,0.150431,-202.532249,-37.904871,38.258927,
121,-0.265138,0.399083,-0.056881,-0.351945,0.035503,0.283069,-232.367451,-18.895944,44.175613,
122,-0.265138,0.399083,-0.056881,-0.393364,0.180093,0.436009,-248.292148,0.364756,48.078108,
123,-0.266972,0.409174,-0.048624,-0.435317,0.288735,0.580287,-249.928678,22.96146,51.665885,
124,-0.266972,0.409174,-0.048624,-0.482881,0.35637,0.749738,-243.697275,47.698242,56.323702,
125,-0.266972,0.409174,-0.048624,-0.52911,0.401372,0.917837,-230.793865,74.512159,58.212006,
126,-0.26422,0.421101,-0.033028,-0.567055,0.473001,1.072942,-212.288486,103.025548,55.316606,
127,-0.26422,0.421101,-0.033028,-0.532316,0.58191,1.222363,-185.096909,131.413051,50.532903,
128,-0.26055,0.437615,-0.024771,-0.444669,0.672712,1.304382,-152.681024,155.205681,50.973507,
129,-0.26055,0.437615,-0.024771,-0.344997,0.706263,1.357166,-118.81744,166.850222,57.01608,
130,-0.26055,0.437615,-0.024771,-0.260289,0.681499,1.393709,-85.646234,168.612639,63.813974,
131,-0.252294,0.448624,-0.024771,-0.212725,0.62771,1.412116,-55.811031,162.695953,64.884013,
132,-0.252294,0.448624,-0.024771,-0.163557,0.602147,1.434583,-30.067154,149.414882,58.086119,
133,-0.252294,0.448624,-0.024771,-0.126948,0.604278,1.454615,-7.533393,132.546034,48.896373,
134,-0.243119,0.453211,-0.026606,-0.094615,0.608538,1.470856,13.489724,113.096503,40.461948,
135,-0.243119,0.453211,-0.026606,-0.073772,0.597621,1.484932,31.428612,90.059194,32.656959,
136,-0.231193,0.459633,-0.033945,-0.065488,0.57046,1.498466,48.675121,66.770112,26.047895,
137,-0.231193,0.459633,-0.033945,-0.065755,0.526524,1.512813,64.159214,44.614013,17.802301,
138,-0.231193,0.459633,-0.033945,-0.070833,0.488978,1.501444,78.006776,24.346217,7.731346,
139,-0.222936,0.459633,-0.037615,-0.076711,0.476463,1.474916,92.294943,7.666198,-3.09493,
140,-0.222936,0.459633,-0.037615,-0.07297,0.459687,1.444058,104.757749,-6.244307,-13.039997,
141,-0.222936,0.459633,-0.037615,-0.068962,0.4509,1.403454,115.521081,-20.658361,-20.467326,
142,-0.221101,0.456881,-0.041284,-0.063885,0.437852,1.381258,125.214375,-36.960719,-26.761673,
143,-0.221101,0.456881,-0.041284,-0.066824,0.433592,1.346609,134.467064,-51.815376,-32.300698,
144,-0.225688,0.452294,-0.047706,-0.071367,0.422674,1.311149,143.027376,-65.096448,-35.762588,
145,-0.225688,0.452294,-0.047706,-0.08553,0.397111,1.274606,150.706479,-76.678045,-37.210288,
146,-0.225688,0.452294,-0.047706,-0.117061,0.364093,1.234273,158.196751,-84.168318,-37.776779,
147,-0.230275,0.443119,-0.049541,-0.140843,0.326281,1.179323,163.98755,-88.322586,-38.783875,
148,-0.230275,0.443119,-0.049541,-0.159816,0.27835,1.126809,169.023027,-89.140851,-39.161535,
149,-0.230275,0.443119,-0.049541,-0.177185,0.218703,1.069423,171.477822,-87.441378,-39.853913,
150,-0.233945,0.433028,-0.058716,-0.180392,0.153199,1.006082,172.610804,-85.804848,-39.853913,
151,-0.233945,0.433028,-0.058716,-0.184667,0.100209,0.923792,171.351935,-82.783561,-39.539196,
152,-0.242202,0.422936,-0.059633,-0.181995,0.057338,0.818494,167.323553,-79.699332,-39.476253,
153,-0.242202,0.422936,-0.059633,-0.16035,0.01633,0.735392,158.952072,-77.055706,-38.846818,
154,-0.242202,0.422936,-0.059633,-0.136835,-0.020416,0.638756,147.370475,-75.356232,-37.084401,
155,-0.246789,0.412844,-0.06422,-0.103166,-0.081128,0.535623,133.019365,-75.482119,-33.307793,
156,-0.246789,0.412844,-0.06422,-0.074039,-0.128793,0.433573,115.017534,-76.992762,-29.405298,
157,-0.246789,0.412844,-0.06422,-0.064419,-0.172196,0.34614,94.372077,-78.251632,-21.726195,
158,-0.254128,0.401835,-0.066972,-0.092744,-0.211073,0.294979,72.341864,-81.398805,-14.676527,
159,-0.254128,0.401835,-0.066972,-0.127215,-0.226517,0.239217,48.486291,-84.420091,-7.81569,
160,-0.256881,0.392661,-0.065138,-0.169436,-0.232908,0.146371,22.616527,-81.209975,1.940548,
161,-0.256881,0.392661,-0.065138,-0.22475,-0.245956,0.098188,-9.358754,-71.453738,13.585089,
162,-0.256881,0.392661,-0.065138,-0.253342,-0.283235,0.067059,-46.432455,-63.082257,23.5931,
163,-0.266972,0.389908,-0.062385,-0.282201,-0.314923,0.062998,-91.122315,-46.528125,36.370623,
164,-0.266972,0.389908,-0.062385,-0.328697,-0.302141,0.113888,-135.686289,-19.840096,46.693351,
165,-0.266972,0.389908,-0.062385,-0.361565,-0.226517,0.18914,-175.403615,10.183937,51.980602,
166,-0.266972,0.391743,-0.06055,-0.393631,-0.127461,0.264933,-207.693613,40.333857,53.680076,
167,-0.266972,0.391743,-0.06055,-0.455358,-0.037725,0.370502,-232.870999,64.315317,53.994793,
168,-0.266055,0.4,-0.051376,-0.534989,0.085031,0.521005,-246.215014,81.372996,46.12686,
169,-0.266055,0.4,-0.051376,-0.569994,0.227757,0.660411,-248.480979,103.277322,30.013333,
170,-0.266055,0.4,-0.051376,-0.532049,0.357169,0.798192,-242.627236,130.154182,17.298753,
171,-0.259633,0.417431,-0.046789,-0.467383,0.457291,0.968456,-227.520805,155.205681,13.585089,
172,-0.259633,0.417431,-0.046789,-0.366642,0.527855,1.025842,-204.168779,170.375056,14.088636,
173,-0.259633,0.417431,-0.046789,-0.230628,0.573389,1.121125,-178.487845,179.879519,18.368792,
174,-0.254128,0.42844,-0.041284,-0.091676,0.593626,1.215054,-151.107438,180.06835,27.684425,
175,-0.254128,0.42844,-0.041284,-0.004563,0.618923,1.300051,-123.160539,164.898975,38.699531,
176,-0.244037,0.436697,-0.038532,0.034985,0.642622,1.378821,-93.451223,139.218041,46.756295,
177,-0.244037,0.436697,-0.038532,0.021357,0.658066,1.450825,-63.175417,112.467068,50.155242,
178,-0.244037,0.436697,-0.038532,-0.026475,0.644486,1.509565,-35.039688,88.296777,50.092298,
179,-0.238532,0.446789,-0.042202,-0.099959,0.623982,1.522558,-7.911054,66.770112,44.49033,
180,-0.238532,0.446789,-0.042202,-0.159014,0.582975,1.555582,16.070406,49.397716,35.363528,
181,-0.238532,0.446789,-0.042202,-0.2007,0.537707,1.563432,36.715863,35.801927,24.411365,
182,-0.22844,0.452294,-0.044037,-0.208984,0.498298,1.554499,54.969468,26.108634,12.51505,
183,-0.22844,0.452294,-0.044037,-0.186003,0.47167,1.541777,70.957108,17.233605,0.241074,
184,-0.224771,0.453211,-0.045872,-0.137904,0.455161,1.519309,85.811766,8.23269,-9.64105,
185,-0.224771,0.453211,-0.045872,-0.087934,0.435988,1.465442,101.799406,-3.160078,-17.886644,
186,-0.224771,0.453211,-0.045872,-0.059609,0.405899,1.41753,116.40229,-16.567036,-24.180991,
187,-0.221101,0.447706,-0.053211,-0.03075,0.369951,1.356896,129.872192,-32.051128,-29.845902,
188,-0.221101,0.447706,-0.053211,-0.029681,0.340926,1.299509,140.698468,-47.535221,-35.888475,
189,-0.221101,0.447706,-0.053211,-0.017924,0.308706,1.223987,148.944062,-62.767539,-40.357461,
190,-0.223853,0.442202,-0.055963,-0.017924,0.271427,1.164164,154.923691,-75.796837,-43.819352,
191,-0.223853,0.442202,-0.055963,-0.017389,0.213378,1.097304,158.826186,-87.063717,-45.518825,
192,-0.229358,0.434862,-0.058716,-0.041172,0.172371,1.034775,161.343924,-96.56818,-47.847734,
193,-0.229358,0.434862,-0.058716,-0.080185,0.147607,0.948154,163.358115,-104.310226,-49.736038,
194,-0.229358,0.434862,-0.058716,-0.10851,0.117783,0.845021,162.917511,-109.849251,-50.86902,
195,-0.233945,0.424771,-0.062385,-0.120535,0.082102,0.736745,157.944977,-110.856347,-51.372568,
196,-0.233945,0.424771,-0.062385,-0.095684,0.046154,0.617371,148.881118,-108.905099,-47.78479,
197,-0.233945,0.424771,-0.062385,-0.091943,-0.020949,0.516674,132.38993,-110.478686,-38.972705,
198,-0.244037,0.413761,-0.065138,-0.099692,-0.088052,0.446836,115.835799,-114.947672,-33.43368,
199,-0.244037,0.413761,-0.065138,-0.137637,-0.147166,0.365359,95.756833,-117.654241,-28.90175,
200,-0.250459,0.402752,-0.066055,-0.17478,-0.198558,0.285505,70.075899,-115.262389,-23.740386,
201,-0.250459,0.402752,-0.066055,-0.197761,-0.242761,0.223247,38.541223,-106.702078,-14.17298,
202,-0.250459,0.402752,-0.066055,-0.230361,-0.27285,0.147183,1.656353,-93.10629,-0.577191,
203,-0.26055,0.394495,-0.063303,-0.287011,-0.284034,0.107933,-38.123917,-80.706427,11.570898,
204,-0.26055,0.394495,-0.063303,-0.28621,-0.29149,0.064622,-84.953856,-62.641652,25.355517,
205,-0.26055,0.394495,-0.063303,-0.304648,-0.248086,0.124716,-135.056854,-33.624715,38.951305,
206,-0.26422,0.391743,-0.063303,-0.332171,-0.162078,0.227307,-179.872601,-6.370194,48.581655,
207,-0.26422,0.391743,-0.063303,-0.366375,-0.04518,0.339643,-212.288486,17.548322,52.358263,
208,-0.266972,0.401835,-0.054128,-0.382408,0.066125,0.484462,-230.919752,38.949101,54.938945,
209,-0.266972,0.401835,-0.054128,-0.428102,0.164116,0.614123,-236.836437,57.328593,55.56838,
210,-0.266972,0.401835,-0.054128,-0.515215,0.259178,0.725647,-233.500434,74.449215,50.721733,
211,-0.26422,0.412844,-0.047706,-0.542738,0.33347,0.832299,-224.247744,96.164711,41.343157,
212,-0.26422,0.412844,-0.047706,-0.537661,0.391253,0.978471,-211.281391,119.390849,32.405185,
213,-0.26422,0.412844,-0.047706,-0.49357,0.46954,1.134118,-191.265369,137.833285,23.467213,
214,-0.258716,0.42844,-0.038532,-0.388286,0.572324,1.241852,-162.563148,150.862582,16.606375,
215,-0.258716,0.42844,-0.038532,-0.249601,0.659131,1.311149,-131.091416,160.178215,18.620566,
216,-0.250459,0.436697,-0.03578,-0.113053,0.678836,1.381258,-99.997344,157.282815,27.684425,
217,-0.250459,0.436697,-0.03578,-0.009907,0.694547,1.461382,-68.399724,143.183479,37.692436,
218,-0.250459,0.436697,-0.03578,0.038994,0.706796,1.513354,-37.242709,122.978627,44.427387,
219,-0.242202,0.444954,-0.033028,0.038192,0.704133,1.537175,-7.65928,95.346446,49.085203,
220,-0.242202,0.444954,-0.033028,-0.024337,0.66206,1.565056,18.965806,65.4483,48.329881,
221,-0.242202,0.444954,-0.033028,-0.119733,0.602147,1.581568,44.772626,41.529783,41.028439,
222,-0.233028,0.448624,-0.038532,-0.207381,0.562472,1.604306,67.054613,25.101538,29.258011,
223,-0.233028,0.448624,-0.038532,-0.226353,0.53824,1.605389,87.825957,14.77881,14.969845,
224,-0.22844,0.450459,-0.044954,-0.197761,0.505488,1.571823,106.079562,8.42152,2.569982,
225,-0.22844,0.450459,-0.044954,-0.141912,0.466078,1.533385,123.766675,1.308908,-7.249198,
226,-0.22844,0.450459,-0.044954,-0.084461,0.417615,1.502797,140.257863,-7.062573,-14.613584,
227,-0.225688,0.447706,-0.048624,-0.047585,0.380069,1.40589,154.608973,-19.084774,-21.474422,
228,-0.225688,0.447706,-0.048624,-0.006166,0.336399,1.341737,163.98755,-33.309998,-26.950503,
229,-0.225688,0.447706,-0.048624,0.017616,0.279415,1.263237,170.093066,-48.227599,-30.286507,
230,-0.226606,0.440367,-0.057798,0.01922,0.222165,1.185008,172.296087,-63.208144,-31.671263,
231,-0.226606,0.440367,-0.057798,0.019487,0.162785,1.104613,171.037218,-76.426271,-32.426585,
232,-0.233945,0.433028,-0.059633,-0.000287,0.107665,1.018533,167.323553,-86.93783,-32.804245,
233,-0.233945,0.433028,-0.059633,-0.029414,0.061065,0.892392,160.71449,-95.057537,-34.440775,
234,-0.233945,0.433028,-0.059633,-0.044645,0.028313,0.759754,148.944062,-102.421922,-35.825532,
235,-0.238532,0.422018,-0.066055,-0.047585,-0.011363,0.670697,135.159443,-109.471591,-35.196097,
236,-0.238532,0.422018,-0.066055,-0.072436,-0.052903,0.581099,118.353537,-116.584202,-31.923037,
237,-0.238532,0.422018,-0.066055,-0.11332,-0.10323,0.485274,96.638042,-121.430849,-27.957599,
238,-0.244037,0.410092,-0.068807,-0.154472,-0.149562,0.411917,73.852507,-122.941492,-24.369821,
239,-0.244037,0.410092,-0.068807,-0.190546,-0.182847,0.315823,47.416252,-119.542545,-19.397287,
240,-0.250459,0.40367,-0.066972,-0.230094,-0.200688,0.23245,17.329276,-111.234008,-11.718184,
241,-0.250459,0.40367,-0.066972,-0.275521,-0.221724,0.177229,-18.73733,-102.170149,-1.206626,
242,-0.250459,0.40367,-0.066972,-0.316138,-0.237967,0.132024,-58.076996,-90.085003,7.605459,
243,-0.256881,0.4,-0.06422,-0.340455,-0.231843,0.139604,-97.857266,-73.719702,13.648032,
244,-0.256881,0.4,-0.06422,-0.323353,-0.197759,0.163154,-136.819271,-53.388963,19.501774,
245,-0.256881,0.4,-0.06422,-0.345264,-0.102164,0.273054,-170.619912,-25.882669,26.362612,
246,-0.26055,0.402752,-0.055046,-0.358625,0.012602,0.348305,-195.041976,-2.090039,30.13922,
247,-0.26055,0.402752,-0.055046,-0.371452,0.113789,0.435738,-211.533164,16.793001,32.656959,
248,-0.26422,0.411927,-0.045872,-0.372788,0.188614,0.584076,-219.526985,32.843584,35.678245,
249,-0.26422,0.411927,-0.045872,-0.428102,0.275688,0.755693,-218.079285,48.138847,35.426471,
250,-0.26422,0.411927,-0.045872,-0.476468,0.373679,0.927852,-207.064178,66.329508,31.838694,
251,-0.259633,0.420183,-0.042202,-0.49544,0.461551,1.06022,-188.055252,86.723191,28.187973,
252,-0.259633,0.420183,-0.042202,-0.492768,0.537974,1.181759,-165.395604,103.088492,27.432651,
253,-0.259633,0.420183,-0.042202,-0.460168,0.595224,1.292742,-137.88931,118.13198,28.187973,
254,-0.256881,0.43211,-0.031193,-0.380003,0.647681,1.402913,-106.165803,130.468899,29.006238,
255,-0.256881,0.43211,-0.031193,-0.285675,0.6807,1.441351,-73.057541,139.343928,32.090467,
256,-0.252294,0.443119,-0.031193,-0.200433,0.702003,1.46842,-41.459921,140.854571,37.188888,
257,-0.252294,0.443119,-0.031193,-0.136835,0.699872,1.475458,-10.177019,130.280069,43.105574,
258,-0.252294,0.443119,-0.031193,-0.095149,0.66499,1.487368,18.210484,109.445782,45.371539,
259,-0.242202,0.447706,-0.03211,-0.103968,0.612532,1.49224,43.891418,85.590208,43.546178,
260,-0.242202,0.447706,-0.03211,-0.146455,0.54756,1.500361,66.739896,62.301126,36.811227,
261,-0.242202,0.447706,-0.03211,-0.203105,0.516938,1.492511,87.70007,44.488126,26.236725,
262,-0.233945,0.447706,-0.037615,-0.214863,0.467676,1.473292,104.568918,32.717698,14.15158,
263,-0.233945,0.447706,-0.037615,-0.199898,0.434391,1.424027,118.03882,23.842669,3.702965,
264,-0.229358,0.446789,-0.044037,-0.161419,0.37288,1.384235,129.368644,15.282358,-5.423838,
265,-0.229358,0.446789,-0.044037,-0.100494,0.305777,1.341737,137.866012,5.274347,-13.669432,
266,-0.229358,0.446789,-0.044037,-0.055067,0.249059,1.274606,143.593867,-9.076763,-21.977969,
267,-0.227523,0.443119,-0.052294,-0.011778,0.217638,1.233461,147.936966,-25.064404,-30.412394,
268,-0.227523,0.443119,-0.052294,0.003721,0.182489,1.168225,148.503457,-40.61144,-36.895571,
269,-0.227523,0.443119,-0.052294,0.01441,0.148405,1.088642,145.608058,-56.78791,-40.042744,
270,-0.229358,0.431193,-0.058716,0.020823,0.113789,1.034233,139.502542,-73.782646,-41.553387,
271,-0.229358,0.431193,-0.058716,0.004523,0.099144,0.991464,131.634609,-90.525608,-42.056935,
272,-0.233945,0.422936,-0.063303,-0.038499,0.077309,0.965478,123.955506,-106.261474,-42.245765,
273,-0.233945,0.422936,-0.063303,-0.082857,0.066924,0.908904,116.717007,-119.290771,-43.252861,
274,-0.233945,0.422936,-0.063303,-0.131491,0.044822,0.825261,106.96077,-128.858178,-44.826447,
275,-0.242202,0.414679,-0.06422,-0.15367,-0.008434,0.732143,96.386268,-132.383012,-43.693465,
276,-0.242202,0.414679,-0.06422,-0.176651,-0.050772,0.67178,84.678783,-132.383012,-40.483348,
277,-0.242202,0.414679,-0.06422,-0.203907,-0.071808,0.56188,71.523599,-131.312973,-36.832627,
278,-0.249541,0.405505,-0.066972,-0.245325,-0.096573,0.513697,56.291281,-129.109952,-35.196097,
279,-0.249541,0.405505,-0.066972,-0.27659,-0.107224,0.431678,39.485375,-126.025722,-33.43368,
280,-0.258716,0.400917,-0.06055,-0.315603,-0.120804,0.356967,17.895767,-121.304962,-30.34945,
281,-0.258716,0.400917,-0.06055,-0.343928,-0.14397,0.312033,-7.848111,-111.674612,-25.754577,
282,-0.258716,0.400917,-0.06055,-0.351143,-0.15116,0.2874,-35.732066,-99.085919,-21.033817,
283,-0.269725,0.397248,-0.058716,-0.338851,-0.16048,0.246797,-62.860699,-83.412996,-14.110036,
284,-0.269725,0.397248,-0.058716,-0.322284,-0.166338,0.251669,-94.332432,-62.830483,-4.479686,
285,-0.269725,0.397248,-0.058716,-0.324154,-0.154355,0.265204,-123.475256,-37.52721,5.213608,
286,-0.273394,0.394495,-0.048624,-0.33992,-0.112283,0.283069,-151.548042,-14.489901,13.585089,
287,-0.273394,0.394495,-0.048624,-0.334041,-0.042518,0.331793,-176.410711,6.407329,20.6977,
288,-0.276147,0.399083,-0.040367,-0.327361,0.044024,0.398112,-197.622659,25.730973,27.180877,
289,-0.276147,0.399083,-0.040367,-0.361832,0.143612,0.502599,-212.288486,41.340952,30.390994,
290,-0.276147,0.399083,-0.040367,-0.375994,0.220834,0.612499,-220.597023,53.426098,31.96458,
291,-0.274312,0.408257,-0.033028,-0.374124,0.322287,0.763002,-219.212267,67.08483,33.475224,
292,-0.274312,0.408257,-0.033028,-0.385347,0.41868,0.917295,-209.2672,82.380092,36.055906,
293,-0.274312,0.408257,-0.033028,-0.391493,0.502558,1.015556,-191.139482,96.227654,40.713722,
294,-0.27156,0.419266,-0.027523,-0.369314,0.558211,1.123832,-169.612816,104.662078,46.315691,
295,-0.27156,0.419266,-0.027523,-0.354884,0.589898,1.223175,-144.05777,107.368647,51.602942,
296,-0.266055,0.431193,-0.022936,-0.335377,0.597088,1.297344,-116.425588,106.802156,53.365359,
297,-0.266055,0.431193,-0.022936,-0.343928,0.600816,1.403454,-87.345707,105.291513,53.617133,
298,-0.266055,0.431193,-0.022936,-0.373055,0.621053,1.47654,-56.440466,103.340266,49.085203,
299,-0.257798,0.43945,-0.021101,-0.377865,0.653273,1.520121,-26.038772,102.962605,42.602026,
300,-0.257798,0.43945,-0.021101,-0.343394,0.666321,1.538528,4.425865,100.444866,36.748284,
301,-0.257798,0.43945,-0.021101,-0.311328,0.659131,1.537987,32.876311,92.89165,31.649863,
302,-0.252294,0.447706,-0.025688,-0.277391,0.615461,1.523911,59.37551,82.254205,25.984951,
303,-0.252294,0.447706,-0.025688,-0.243188,0.562738,1.497113,83.231084,70.609664,18.431735,
304,-0.244037,0.446789,-0.026606,-0.19402,0.510547,1.459487,104.128314,57.706253,8.234894,
305,-0.244037,0.446789,-0.026606,-0.145119,0.460752,1.424027,120.682446,45.306391,-1.332513,
306,-0.244037,0.446789,-0.026606,-0.090339,0.417881,1.360956,135.537103,30.262902,-8.822785,
307,-0.241284,0.444954,-0.036697,-0.049722,0.37714,1.310608,147.559305,12.135184,-15.054188,
308,-0.241284,0.444954,-0.036697,-0.022734,0.329476,1.276771,157.252599,-6.370194,-20.152609,
309,-0.241284,0.444954,-0.036697,0.001316,0.286072,1.230213,164.239324,-25.379121,-24.369821,
310,-0.238532,0.43945,-0.043119,-0.012579,0.249592,1.180406,169.526575,-42.310913,-27.139333,
311,-0.238532,0.43945,-0.043119,-0.02113,0.211248,1.120042,171.540766,-56.78791,-28.90175,
312,-0.242202,0.430275,-0.051376,-0.043309,0.176099,1.084311,172.107257,-68.180677,-29.342355,
313,-0.242202,0.430275,-0.051376,-0.075108,0.153997,1.053452,171.666652,-79.447558,-29.908846,
314,-0.242202,0.430275,-0.051376,-0.131491,0.142814,1.020428,171.98137,-89.581456,-31.734206,
315,-0.245872,0.422018,-0.054128,-0.189744,0.150003,1.006623,172.107257,-95.875802,-34.818436,
316,-0.245872,0.422018,-0.054128,-0.237309,0.154264,0.98984,172.044313,-97.260558,-36.266136,
317,-0.245872,0.422018,-0.054128,-0.282468,0.136157,0.941387,173.240239,-92.225081,-36.329079,
318,-0.253211,0.408257,-0.059633,-0.301441,0.085297,0.884271,171.918426,-85.3013,-35.25904,
319,-0.253211,0.408257,-0.059633,-0.303311,0.021656,0.816869,168.960083,-77.30748,-34.314889,
320,-0.259633,0.399083,-0.062385,-0.29476,-0.032665,0.73458,162.288076,-70.257812,-34.189002,
321,-0.259633,0.399083,-0.062385,-0.261893,-0.079531,0.65608,153.09833,-64.844674,-34.566662,
322,-0.259633,0.399083,-0.062385,-0.223681,-0.114946,0.579745,140.824354,-61.823387,-33.24485,
323,-0.265138,0.390826,-0.063303,-0.199631,-0.150628,0.518299,124.710827,-60.942179,-30.097676,
324,-0.265138,0.390826,-0.063303,-0.187874,-0.167137,0.446566,104.443032,-61.571613,-24.999256,
325,-0.265138,0.390826,-0.063303,-0.172642,-0.195363,0.383495,82.286932,-62.075161,-18.201361,
326,-0.270642,0.378899,-0.068807,-0.178788,-0.224653,0.347764,55.850676,-60.501575,-8.130407,
327,-0.270642,0.378899,-0.068807,-0.217268,-0.249418,0.338019,26.770795,-60.816292,2.318208,
328,-0.272477,0.372477,-0.066972,-0.257617,-0.261933,0.284423,-1.176103,-61.50867,10.312028,
329,-0.272477,0.372477,-0.066972,-0.293959,-0.274448,0.272512,-35.354405,-49.927072,19.879435,
330,-0.272477,0.372477,-0.066972,-0.344463,-0.262199,0.264392,-70.539802,-29.596333,30.13922,
331,-0.275229,0.370642,-0.063303,-0.368245,-0.253944,0.294167,-105.788143,-8.887933,40.965496,
332,-0.275229,0.370642,-0.063303,-0.391226,-0.2156,0.345328,-137.322819,10.120994,49.21109,
333,-0.275229,0.370642,-0.063303,-0.392562,-0.147698,0.404338,-162.185488,31.773546,54.183624,
334,-0.277982,0.374312,-0.062385,-0.366642,-0.067814,0.462807,-184.404531,54.999684,56.071928,
335,-0.277982,0.374312,-0.062385,-0.341523,0.027248,0.541849,-202.091645,76.778123,60.352083,
336,-0.272477,0.384404,-0.057798,-0.353014,0.105002,0.660681,-212.72909,91.192177,64.884013,
337,-0.272477,0.384404,-0.057798,-0.398708,0.206987,0.819576,-213.610299,101.577849,64.317522,
338,-0.272477,0.384404,-0.057798,-0.439058,0.301783,0.941116,-204.798214,114.921863,58.589666,
339,-0.269725,0.397248,-0.055046,-0.439058,0.37501,1.082416,-190.38416,127.699387,51.602942,
340,-0.269725,0.397248,-0.055046,-0.422757,0.440515,1.198813,-170.053421,140.351023,47.259843,
341,-0.269725,0.397248,-0.055046,-0.369848,0.49457,1.300863,-145.505469,151.36613,44.993878,
342,-0.261468,0.412844,-0.053211,-0.303311,0.520133,1.364204,-118.250949,156.212777,44.805047,
343,-0.261468,0.412844,-0.053211,-0.236774,0.535844,1.419154,-89.737559,153.569151,44.616217,
344,-0.249541,0.423853,-0.049541,-0.173444,0.529719,1.45678,-60.342961,142.805818,42.413196,
345,-0.249541,0.423853,-0.049541,-0.125612,0.532116,1.478165,-30.507758,124.30044,36.433567,
346,-0.249541,0.423853,-0.049541,-0.092477,0.520932,1.47627,-1.868481,102.522001,28.565633,
347,-0.241284,0.430275,-0.052294,-0.068962,0.491907,1.477082,23.434792,79.232918,21.704796,
348,-0.241284,0.430275,-0.052294,-0.061747,0.447971,1.45272,46.094439,56.00678,14.466297,
349,-0.241284,0.430275,-0.052294,-0.057739,0.393383,1.432959,64.473931,33.284189,6.409534,
350,-0.233945,0.431193,-0.057798,-0.051593,0.342258,1.395875,78.510324,12.512845,-1.773117,
351,-0.233945,0.431193,-0.057798,-0.035293,0.273824,1.355542,87.574183,-5.74076,-9.515163,
352,-0.231193,0.430275,-0.062385,-0.019794,0.204324,1.308442,93.113208,-23.490817,-15.935397,
353,-0.231193,0.430275,-0.062385,-0.02113,0.154796,1.262695,96.826872,-38.723136,-22.670347,
354,-0.231193,0.430275,-0.062385,-0.018458,0.128434,1.208287,96.638042,-52.822472,-27.642881,
355,-0.231193,0.422018,-0.066972,-0.006433,0.117517,1.166601,94.120303,-66.481204,-30.286507,
356,-0.231193,0.422018,-0.066972,-0.019527,0.115919,1.114087,89.021883,-81.335862,-30.915941,
357,-0.231193,0.422018,-0.066972,-0.045981,0.105002,1.076461,83.671688,-95.309311,-30.790054,
358,-0.233028,0.419266,-0.069725,-0.07778,0.095682,1.037752,78.132663,-106.765022,-30.223563,
359,-0.233028,0.419266,-0.069725,-0.121871,0.096747,1.00933,72.027147,-113.877633,-27.957599,
360,-0.241284,0.413761,-0.070642,-0.173177,0.0829,0.976576,65.54397,-115.891824,-24.118047,
361,-0.241284,0.413761,-0.070642,-0.23811,0.075178,0.941657,59.564341,-114.884729,-21.348535,
362,-0.241284,0.413761,-0.070642,-0.308389,0.074379,0.89185,55.284185,-109.786308,-20.341439,
363,-0.248624,0.407339,-0.065138,-0.35141,0.072249,0.848269,50.563425,-101.037166,-21.033817,
364,-0.248624,0.407339,-0.065138,-0.366375,0.067456,0.787364,44.961457,-87.944925,-20.467326,
365,-0.248624,0.407339,-0.065138,-0.379201,0.047219,0.728083,37.345297,-71.642568,-17.760757,
366,-0.254128,0.4,-0.06422,-0.381606,0.019792,0.668261,28.092608,-53.829567,-13.732375,
367,-0.254128,0.4,-0.06422,-0.375994,-0.006303,0.607085,17.581049,-34.380036,-9.011615,
368,-0.258716,0.398165,-0.06422,-0.352747,-0.053169,0.531292,3.104052,-14.426958,-3.157873,
369,-0.258716,0.398165,-0.06422,-0.312931,-0.10323,0.440881,-15.841931,8.169746,4.584173,
370,-0.258716,0.398165,-0.06422,-0.274986,-0.157018,0.39324,-39.760448,29.570524,13.522145,
371,-0.263303,0.399083,-0.059633,-0.266435,-0.169267,0.364817,-66.259646,44.739899,19.501774,
372,-0.263303,0.399083,-0.059633,-0.241317,-0.139444,0.355343,-92.758845,56.384441,22.271287,
373,-0.263303,0.399083,-0.059633,-0.213259,-0.065151,0.369148,-117.684458,67.903095,24.222534,
374,-0.26055,0.4,-0.058716,-0.176383,0.022455,0.439799,-137.133988,77.218728,26.236725,
375,-0.26055,0.4,-0.058716,-0.177719,0.09728,0.56973,-147.204943,79.358805,28.880351,
376,-0.258716,0.405505,-0.056881,-0.202838,0.159589,0.7113,-147.51966,75.141593,28.754464,
377,-0.258716,0.405505,-0.056881,-0.248265,0.215242,0.826885,-142.673013,71.302042,26.110838,
378,-0.258716,0.405505,-0.056881,-0.283003,0.280214,0.928935,-134.427419,74.260385,22.1454,
379,-0.254128,0.417431,-0.055963,-0.278193,0.34998,1.041271,-124.167635,82.568922,20.005322,
380,-0.254128,0.417431,-0.055963,-0.243455,0.422142,1.137637,-110.760676,93.017537,22.523061,
381,-0.254128,0.417431,-0.055963,-0.199097,0.46235,1.236709,-94.458319,98.430675,28.565633,
382,-0.245872,0.420183,-0.053211,-0.168367,0.476197,1.307901,-74.694071,96.920032,35.363528,
383,-0.245872,0.420183,-0.053211,-0.165695,0.482587,1.37043,-54.237445,89.303873,37.692436,
384,-0.242202,0.42844,-0.055046,-0.17478,0.484451,1.406973,-33.214327,79.862353,36.181793,
385,-0.242202,0.42844,-0.055046,-0.196425,0.487114,1.440268,-13.135362,70.420833,31.838694,
386,-0.242202,0.42844,-0.055046,-0.212725,0.488446,1.453802,5.495904,62.867617,26.929103,
387,-0.233945,0.433945,-0.055963,-0.207113,0.467676,1.461111,23.497735,57.265649,20.445926,
388,-0.233945,0.433945,-0.055963,-0.193218,0.440515,1.460299,39.863036,50.971303,14.15158,
389,-0.233945,0.433945,-0.055963,-0.185469,0.418946,1.480601,57.55015,40.333857,5.905986,
390,-0.230275,0.433945,-0.056881,-0.179056,0.405632,1.492782,77.692059,25.982747,-5.549725,
391,-0.230275,0.433945,-0.056881,-0.14218,0.407763,1.487909,100.666424,11.379863,-19.712005,
392,-0.229358,0.433028,-0.063303,-0.094348,0.395514,1.454885,122.067202,-2.341813,-31.041828,
393,-0.229358,0.433028,-0.063303,-0.031017,0.371548,1.388025,141.076128,-18.140622,-39.60214,
394,-0.229358,0.433028,-0.063303,0.008264,0.336932,1.324954,155.930786,-36.205397,-45.015278,
395,-0.224771,0.427523,-0.06789,0.037925,0.275688,1.252409,165.62408,-56.158475,-49.610151,
396,-0.224771,0.427523,-0.06789,0.057699,0.196602,1.18609,170.407783,-76.300384,-53.827363,
397,-0.224771,0.427523,-0.06789,0.055027,0.126038,1.115982,171.037218,-96.37935,-57.163366,
398,-0.23211,0.417431,-0.072477,0.029107,0.062663,1.042354,168.582423,-113.877633,-59.05167,
399,-0.23211,0.417431,-0.072477,-0.013648,0.031508,0.976847,162.854567,-129.298782,-60.058766,
400,-0.237615,0.406422,-0.077982,-0.053463,-0.000179,0.888602,152.657726,-139.495624,-59.995822,
401,-0.237615,0.406422,-0.077982,-0.096753,-0.0316,0.815787,139.691372,-145.60114,-58.044575,
402,-0.237615,0.406422,-0.077982,-0.135766,-0.077933,0.731602,123.766675,-148.118878,-53.638532,
403,-0.246789,0.394495,-0.076147,-0.175314,-0.122934,0.647147,105.953675,-149.503635,-47.029469,
404,-0.246789,0.394495,-0.076147,-0.219405,-0.149829,0.611145,87.133579,-147.300613,-40.042744,
405,-0.246789,0.394495,-0.076147,-0.25067,-0.167669,0.533186,68.376426,-141.572758,-33.307793,
406,-0.258716,0.383486,-0.073394,-0.287813,-0.182049,0.465785,46.723874,-131.501803,-26.069295,
407,-0.258716,0.383486,-0.073394,-0.330033,-0.200156,0.425452,23.371848,-117.339524,-19.649061,
408,-0.26789,0.377982,-0.07156,-0.347402,-0.198025,0.410293,0.712201,-100.155958,-14.047093,
409,-0.26789,0.377982,-0.07156,-0.351945,-0.171664,0.391074,-21.255069,-82.657674,-9.578107,
410,-0.26789,0.377982,-0.07156,-0.340989,-0.147698,0.379976,-42.089356,-61.886331,-4.794403,
411,-0.275229,0.374312,-0.06422,-0.321215,-0.129059,0.374292,-62.483039,-39.35257,2.192321,
412,-0.275229,0.374312,-0.06422,-0.305449,-0.11468,0.369961,-81.177248,-18.45534,10.87852,
413,-0.275229,0.374312,-0.06422,-0.29476,-0.106425,0.410835,-97.668436,-0.327622,20.194152,
414,-0.278899,0.375229,-0.059633,-0.284339,-0.083259,0.461454,-111.390111,18.05187,29.132125,
415,-0.278899,0.375229,-0.059633,-0.313198,-0.045979,0.536705,-121.838726,38.445553,38.825418,
416,-0.277982,0.380734,-0.053211,-0.371452,0.007277,0.622785,-128.384847,56.573271,45.497426,
417,-0.277982,0.380734,-0.053211,-0.39657,0.081835,0.713195,-130.587868,74.700989,46.630408,
418,-0.277982,0.380734,-0.053211,-0.395234,0.157992,0.822012,-128.321903,94.905841,47.889277,
419,-0.273394,0.388991,-0.053211,-0.398441,0.222964,0.902678,-121.272235,111.019368,49.903468,
420,-0.273394,0.388991,-0.053211,-0.396303,0.27409,1.013932,-109.564751,121.530927,50.344072,
421,-0.273394,0.388991,-0.053211,-0.381873,0.319624,1.095409,-94.898923,128.014104,47.76339,
422,-0.269725,0.397248,-0.050459,-0.350074,0.342258,1.192587,-77.967131,129.524747,45.119765,
423,-0.269725,0.397248,-0.050459,-0.316672,0.347051,1.251327,-59.461752,125.244592,41.657874,
424,-0.261468,0.40367,-0.054128,-0.272047,0.3593,1.28002,-40.389882,119.264962,35.992962,
425,-0.261468,0.40367,-0.054128,-0.217802,0.368353,1.312773,-23.583977,110.704651,30.516881,
426,-0.261468,0.40367,-0.054128,-0.161152,0.377407,1.346068,-7.65928,97.738297,25.733177,
427,-0.253211,0.410092,-0.057798,-0.121871,0.37075,1.365287,9.524286,77.911106,21.893626,
428,-0.253211,0.410092,-0.057798,-0.129086,0.367554,1.389378,26.896682,55.377345,17.550527,
429,-0.253211,0.410092,-0.057798,-0.154472,0.355039,1.419696,45.0244,32.717698,10.87852,
430,-0.246789,0.413761,-0.062385,-0.190279,0.347317,1.419154,62.522684,12.638732,1.62583,
431,-0.246789,0.413761,-0.062385,-0.192951,0.324949,1.409951,77.314398,-3.160078,-6.871538,
432,-0.243119,0.412844,-0.06789,-0.195623,0.304978,1.377468,90.658413,-16.063488,-14.36181,
433,-0.243119,0.412844,-0.06789,-0.180392,0.27409,1.356896,103.058275,-28.27452,-20.152609,
434,-0.243119,0.412844,-0.06789,-0.143783,0.228023,1.29599,113.003343,-40.61144,-24.747482,
435,-0.243119,0.406422,-0.070642,-0.115458,0.171039,1.24889,119.297689,-54.396058,-27.768768,
436,-0.243119,0.406422,-0.070642,-0.108243,0.116718,1.203414,123.074297,-68.180677,-29.971789,
437,-0.243119,0.406422,-0.070642,-0.119199,0.070385,1.147111,124.773771,-80.517597,-31.545376,
438,-0.244954,0.400917,-0.070642,-0.151265,0.047751,1.079168,123.011354,-88.511417,-33.056019,
439,-0.244954,0.400917,-0.070642,-0.169168,0.030709,1.046685,118.668255,-94.365159,-33.811341,
440,-0.251376,0.394495,-0.075229,-0.198028,0.0142,0.984697,114.95459,-99.148862,-33.874284,
441,-0.251376,0.394495,-0.075229,-0.219138,-0.012162,0.913235,109.919113,-103.806679,-33.748397,
442,-0.251376,0.394495,-0.075229,-0.238912,-0.037458,0.817952,103.939484,-105.883813,-34.189002,
443,-0.259633,0.386239,-0.074312,-0.257885,-0.062222,0.727542,96.386268,-104.939661,-33.370737,
444,-0.259633,0.386239,-0.074312,-0.270444,-0.098969,0.634154,85.371162,-102.92547,-32.111867,
445,-0.259633,0.386239,-0.074312,-0.288882,-0.156219,0.539954,71.020051,-99.715353,-28.398203,
446,-0.266055,0.378899,-0.068807,-0.297165,-0.207612,0.438716,53.584712,-94.302215,-24.495708,
447,-0.266055,0.378899,-0.068807,-0.315069,-0.253145,0.367795,31.995103,-86.623113,-18.767853,
448,-0.273394,0.369725,-0.069725,-0.308121,-0.30507,0.304995,4.174091,-76.111554,-10.711089,
449,-0.273394,0.369725,-0.069725,-0.313733,-0.317319,0.265745,-27.297641,-58.990931,-1.017795,
450,-0.273394,0.369725,-0.069725,-0.306251,-0.307733,0.241924,-62.734812,-36.708945,10.752633,
451,-0.277982,0.366972,-0.066972,-0.293959,-0.270187,0.245985,-100.060287,-13.231032,24.096647,
452,-0.277982,0.366972,-0.066972,-0.287011,-0.216399,0.256542,-134.364476,6.596159,36.244736,
453,-0.277982,0.366972,-0.066972,-0.275788,-0.142905,0.35399,-161.493109,25.290369,44.67916,
454,-0.280734,0.372477,-0.059633,-0.291287,-0.0545,0.461995,-178.550789,43.669861,50.910564,
455,-0.280734,0.372477,-0.059633,-0.319612,0.025118,0.555924,-187.614648,57.517423,55.190719,
456,-0.277982,0.382569,-0.057798,-0.352747,0.092487,0.609521,-193.846051,70.232003,56.449588,
457,-0.277982,0.382569,-0.057798,-0.359427,0.138819,0.726459,-196.804394,87.037908,56.197815,
458,-0.277982,0.382569,-0.057798,-0.371185,0.198466,0.877775,-193.783107,105.60623,56.953136,
459,-0.273394,0.390826,-0.055046,-0.402716,0.272758,0.979283,-184.593361,119.831454,55.190719,
460,-0.273394,0.390826,-0.055046,-0.406992,0.350512,1.095409,-168.983382,130.84656,50.532903,
461,-0.273394,0.390826,-0.055046,-0.375727,0.411491,1.184195,-149.093247,139.595702,46.12686,
462,-0.266972,0.405505,-0.049541,-0.327628,0.443977,1.251327,-126.433599,144.127631,44.364443,
463,-0.266972,0.405505,-0.049541,-0.293157,0.465279,1.316833,-104.214556,143.183479,43.357348,
464,-0.256881,0.414679,-0.048624,-0.235973,0.469806,1.352023,-80.988417,135.693207,40.587835,
465,-0.256881,0.414679,-0.048624,-0.190813,0.473534,1.384506,-57.951109,123.04157,35.426471,
466,-0.256881,0.414679,-0.048624,-0.153135,0.477528,1.414552,-36.109727,106.550382,30.705711,
467,-0.246789,0.422018,-0.053211,-0.140843,0.46235,1.429711,-15.590157,86.53436,25.481404,
468,-0.246789,0.422018,-0.053211,-0.14218,0.451699,1.463547,5.370017,64.315317,18.179962,
469,-0.246789,0.422018,-0.053211,-0.148326,0.441847,1.487909,25.260152,44.865786,9.745537,
470,-0.242202,0.429358,-0.056881,-0.152868,0.436255,1.482496,45.150287,27.871051,0.996396,
471,-0.242202,0.429358,-0.056881,-0.155006,0.412822,1.481684,64.473931,12.575789,-5.864442,
472,-0.236697,0.42844,-0.06055,-0.137637,0.379004,1.44514,81.783384,-3.097134,-13.102941,
473,-0.236697,0.42844,-0.06055,-0.130956,0.349447,1.411575,97.393363,-17.951792,-20.026722,
474,-0.236697,0.42844,-0.06055,-0.110381,0.308706,1.388566,110.863265,-33.561771,-27.957599,
475,-0.236697,0.425688,-0.065138,-0.083125,0.271427,1.342008,122.696636,-48.038768,-35.007267,
476,-0.236697,0.425688,-0.065138,-0.060946,0.2211,1.26838,130.501626,-62.075161,-40.609235,
477,-0.236697,0.425688,-0.065138,-0.045981,0.155861,1.195835,135.159443,-74.097363,-44.197013,
478,-0.238532,0.417431,-0.066972,-0.04224,0.100475,1.114628,136.040651,-87.063717,-46.651808,
479,-0.238532,0.417431,-0.066972,-0.04705,0.048018,1.047497,134.907669,-98.645315,-47.092412,
480,-0.243119,0.409174,-0.069725,-0.057205,0.011537,0.937868,130.438683,-107.898004,-46.274147,
481,-0.243119,0.409174,-0.069725,-0.060946,-0.016156,0.819576,122.256032,-115.765937,-45.267051,
482,-0.243119,0.409174,-0.069725,-0.079651,-0.030535,0.728895,113.003343,-119.668432,-39.916857,
483,-0.252294,0.397248,-0.070642,-0.112518,-0.059826,0.628199,102.177067,-121.682623,-32.300698,
484,-0.252294,0.397248,-0.070642,-0.148058,-0.121869,0.505035,87.322409,-121.871453,-24.873369,
485,-0.252294,0.397248,-0.070642,-0.168634,-0.193765,0.354531,67.998765,-117.08775,-15.557736,
486,-0.258716,0.390826,-0.06789,-0.223414,-0.285099,0.22054,36.967637,-106.827965,-3.724364,
487,-0.258716,0.390826,-0.06789,-0.281132,-0.356196,0.137167,-4.323277,-92.728629,7.227799,
488,-0.266055,0.384404,-0.065138,-0.296631,-0.36525,0.086278,-52.097367,-73.027324,17.298753,
489,-0.266055,0.384404,-0.065138,-0.274452,-0.345545,0.07951,-104.906934,-47.724051,29.258011,
490,-0.266055,0.384404,-0.065138,-0.255747,-0.29362,0.104414,-155.891141,-24.246139,41.091383,
491,-0.269725,0.384404,-0.056881,-0.270177,-0.175392,0.198885,-197.370885,-4.796608,47.952221,
492,-0.269725,0.384404,-0.056881,-0.297433,-0.007369,0.320695,-222.35944,15.974736,49.966412,
493,-0.269725,0.384404,-0.056881,-0.28808,0.119115,0.423828,-236.269946,35.927814,54.750115,
494,-0.272477,0.392661,-0.052294,-0.337515,0.205922,0.550781,-240.990706,48.264733,61.296235,
495,-0.272477,0.392661,-0.052294,-0.408595,0.283676,0.700743,-237.402929,57.580366,60.100309,
496,-0.269725,0.409174,-0.044954,-0.442799,0.379803,0.874256,-225.191896,73.945667,52.29532,
497,-0.269725,0.409174,-0.044954,-0.464443,0.465812,1.053452,-205.490592,93.458142,47.133956,
498,-0.269725,0.409174,-0.044954,-0.50987,0.541702,1.234002,-175.340672,108.375743,45.182708,
499,-0.26055,0.420183,-0.037615,-0.515482,0.620787,1.341737,-137.574593,119.705567,40.713722,
500,-0.26055,0.420183,-0.037615,-0.468452,0.674576,1.396146,-98.046096,131.224221,36.49651,
501,-0.26055,0.420183,-0.037615,-0.39176,0.674576,1.431606,-60.342961,137.518567,34.482319,
502,-0.255963,0.431193,-0.036697,-0.321749,0.634367,1.43702,-25.409337,133.427242,30.957485,
503,-0.255963,0.431193,-0.036697,-0.262962,0.602147,1.434313,2.978165,122.978627,23.907817,
504,-0.245872,0.440367,-0.036697,-0.213794,0.580579,1.462465,27.966721,108.69046,16.354601,
505,-0.245872,0.440367,-0.036697,-0.183865,0.559276,1.444058,49.933991,90.625686,9.871424,
506,-0.245872,0.440367,-0.036697,-0.171306,0.503357,1.439997,69.257634,71.616759,4.71006,
507,-0.242202,0.441284,-0.041284,-0.157144,0.451433,1.417801,84.993501,53.174324,-3.09493,
508,-0.242202,0.441284,-0.041284,-0.138171,0.405632,1.394251,95.505059,37.942005,-10.522259,
509,-0.242202,0.441284,-0.041284,-0.098089,0.364625,1.364475,103.372993,23.905612,-16.564831,
510,-0.237615,0.43945,-0.050459,-0.063351,0.325482,1.347151,109.100848,8.862124,-20.089665,
511,-0.237615,0.43945,-0.050459,-0.017656,0.270362,1.313856,115.269308,-7.440233,-23.048008,
512,-0.238532,0.433945,-0.053211,-0.002158,0.211514,1.266756,119.738294,-23.050213,-25.565747,
513,-0.238532,0.433945,-0.053211,-0.010976,0.169442,1.228047,121.374824,-37.967814,-28.461146,
514,-0.238532,0.433945,-0.053211,-0.023001,0.134293,1.188526,120.053011,-52.318924,-31.545376,
515,-0.234862,0.425688,-0.062385,-0.057472,0.110327,1.152254,116.40229,-65.285278,-34.944323,
516,-0.234862,0.425688,-0.062385,-0.084995,0.09728,1.082145,110.926208,-74.663854,-37.273231,
517,-0.234862,0.425688,-0.062385,-0.107441,0.091688,1.072401,104.380088,-83.287109,-39.224479,
518,-0.242202,0.418349,-0.061468,-0.139507,0.093019,1.039106,99.15578,-90.525608,-40.861009,
519,-0.242202,0.418349,-0.061468,-0.165427,0.106067,0.998502,96.386268,-96.56818,-42.371652,
520,-0.246789,0.410092,-0.063303,-0.187339,0.12444,0.948966,95.316229,-100.344788,-42.056935,
521,-0.246789,0.410092,-0.063303,-0.206579,0.116984,0.892392,94.309134,-102.484866,-39.728027,
522,-0.246789,0.410092,-0.063303,-0.220741,0.085563,0.834735,91.539621,-104.939661,-36.140249,
523,-0.254128,0.40367,-0.06422,-0.238912,0.061864,0.764626,87.763013,-105.569096,-32.678358,
524,-0.254128,0.40367,-0.06422,-0.247463,0.037367,0.72294,83.231084,-102.296036,-28.209372,
525,-0.254128,0.40367,-0.06422,-0.256816,0.01633,0.67178,77.629115,-94.93165,-21.222648,
526,-0.26055,0.39633,-0.062385,-0.289683,0.001419,0.596799,70.957108,-85.11247,-13.039997,
527,-0.26055,0.39633,-0.062385,-0.324422,-0.053968,0.542931,61.515588,-74.160307,-4.668516,
528,-0.26789,0.390826,-0.06055,-0.344196,-0.119739,0.460642,45.779722,-61.571613,2.192321,
529,-0.26789,0.390826,-0.06055,-0.37546,-0.184445,0.416519,24.441887,-42.562687,9.179046,
530,-0.26789,0.390826,-0.06055,-0.385614,-0.21773,0.369961,-2.372029,-17.448244,16.669318,
531,-0.268807,0.388073,-0.057798,-0.383477,-0.231843,0.346681,-34.34731,10.813372,25.040799,
532,-0.268807,0.388073,-0.057798,-0.343661,-0.220926,0.341809,-67.140855,38.76027,34.797036,
533,-0.268807,0.388073,-0.057798,-0.302243,-0.177256,0.362652,-97.101944,62.930561,42.727913,
534,-0.27156,0.388991,-0.057798,-0.285675,-0.097105,0.443859,-118.880383,80.617675,46.819238,
535,-0.27156,0.388991,-0.057798,-0.277124,-0.003108,0.546992,-132.035568,90.87746,44.867991,
536,-0.268807,0.392661,-0.057798,-0.244791,0.096747,0.620078,-138.015197,98.241845,41.280213,
537,-0.268807,0.392661,-0.057798,-0.214863,0.159589,0.680983,-140.97354,104.787965,42.476139,
538,-0.268807,0.392661,-0.057798,-0.215931,0.194472,0.78574,-142.735957,108.438686,46.315691,
539,-0.26055,0.401835,-0.053211,-0.223414,0.234148,0.887249,-139.274066,110.641708,48.518712,
540,-0.26055,0.401835,-0.053211,-0.206579,0.304446,0.995254,-131.972624,111.397029,47.826334,
541,-0.26055,0.401835,-0.053211,-0.17478,0.352376,1.10759,-120.768687,110.641708,48.581655,
542,-0.254128,0.409174,-0.056881,-0.153937,0.385928,1.154961,-106.858182,104.913852,51.225281,
543,-0.254128,0.409174,-0.056881,-0.147524,0.381667,1.203414,-94.269489,95.220559,52.861811,
544,-0.243119,0.421101,-0.058716,-0.180124,0.369418,1.299239,-82.058456,82.820696,51.917659,
545,-0.243119,0.421101,-0.058716,-0.245325,0.378738,1.396687,-66.196703,70.043172,45.245652,
546,-0.243119,0.421101,-0.058716,-0.313198,0.431728,1.46842,-45.488303,59.342783,30.957485,
547,-0.238532,0.427523,-0.055963,-0.328163,0.503091,1.531761,-21.192125,54.433193,15.284562,
548,-0.238532,0.427523,-0.055963,-0.301708,0.547027,1.572906,4.551752,49.460659,3.702965,
549,-0.238532,0.427523,-0.055963,-0.251739,0.554217,1.589689,30.67329,41.65567,-3.157873,
550,-0.234862,0.430275,-0.057798,-0.198562,0.518535,1.564785,56.605998,30.388789,-9.64105,
551,-0.234862,0.430275,-0.057798,-0.136034,0.467676,1.524182,79.013872,15.974736,-16.942492,
552,-0.229358,0.431193,-0.058716,-0.065221,0.386993,1.477623,98.022798,-1.082943,-24.055104,
553,-0.229358,0.431193,-0.058716,-0.018992,0.315363,1.399935,111.366813,-20.406587,-31.104772,
554,-0.229358,0.431193,-0.058716,-0.003761,0.23974,1.338489,120.808333,-41.114987,-36.958514,
555,-0.23211,0.427523,-0.063303,0.018685,0.176897,1.272982,124.773771,-59.998027,-42.245765,
556,-0.23211,0.427523,-0.063303,0.017883,0.133494,1.202061,124.081393,-77.181593,-45.518825,
557,-0.23211,0.427523,-0.063303,0.013074,0.100475,1.114357,120.934219,-92.917459,-47.470073,
558,-0.233945,0.422936,-0.066055,-0.002425,0.079971,1.038294,114.891647,-110.038082,-48.854829,
559,-0.233945,0.422936,-0.066055,-0.03743,0.071717,0.991464,109.478509,-126.7181,-48.351281,
560,-0.240367,0.411009,-0.06789,-0.068962,0.069586,0.929206,105.51307,-140.628606,-46.777695,
561,-0.240367,0.411009,-0.06789,-0.116259,0.044556,0.843938,101.358802,-150.384843,-44.259956,
562,-0.240367,0.411009,-0.06789,-0.173978,0.026449,0.764626,95.001512,-154.727942,-42.119878,
563,-0.253211,0.401835,-0.066972,-0.216466,-0.001777,0.669614,87.259465,-150.762504,-38.657988,
564,-0.253211,0.401835,-0.066972,-0.262962,-0.044914,0.584347,76.181416,-142.579853,-33.496623,
565,-0.253211,0.401835,-0.066972,-0.308923,-0.112816,0.494749,61.263814,-132.634786,-28.461146,
566,-0.26055,0.394495,-0.065138,-0.34473,-0.175392,0.405962,43.891418,-118.283676,-23.551556,
567,-0.26055,0.394495,-0.065138,-0.379201,-0.228381,0.3345,17.95871,-97.386445,-17.823701,
568,-0.26789,0.388073,-0.06055,-0.385347,-0.242761,0.286588,-13.701853,-71.390794,-10.459315,
569,-0.26789,0.388073,-0.06055,-0.351678,-0.226517,0.265474,-49.516685,-42.688574,-0.640135,
570,-0.26789,0.388073,-0.06055,-0.302243,-0.173794,0.279821,-83.569099,-15.55994,10.87852,
571,-0.273394,0.388073,-0.054128,-0.250402,-0.104827,0.319612,-113.089585,7.666198,23.467213,
572,-0.273394,0.388073,-0.054128,-0.225284,-0.019085,0.410023,-134.301532,26.612181,36.244736,
573,-0.273394,0.388073,-0.054128,-0.208984,0.04429,0.488252,-144.938978,42.159217,47.637503,
574,-0.276147,0.392661,-0.048624,-0.234369,0.104203,0.571895,-151.610985,54.307306,58.715553,
575,-0.276147,0.392661,-0.048624,-0.29289,0.144678,0.64823,-156.205858,65.133582,67.024091,
576,-0.273394,0.4,-0.044037,-0.35435,0.195005,0.758942,-158.78654,75.896915,70.423038,
577,-0.273394,0.4,-0.044037,-0.409129,0.24613,0.887519,-156.268802,90.373912,69.91949,
578,-0.273394,0.4,-0.044037,-0.454823,0.29699,1.018804,-148.96736,105.291513,66.898204,
579,-0.265138,0.411927,-0.040367,-0.502655,0.343855,1.141426,-136.693384,117.313715,60.47797,
580,-0.265138,0.411927,-0.040367,-0.51468,0.4051,1.246725,-117.306797,129.0212,50.910564,
581,-0.265138,0.411927,-0.040367,-0.475666,0.467409,1.33524,-94.395375,139.973362,39.203079,
582,-0.255963,0.422936,-0.040367,-0.402182,0.529985,1.383152,-68.273837,146.897144,30.076277,
583,-0.255963,0.422936,-0.040367,-0.28808,0.563537,1.432689,-42.278186,143.938801,24.411365,
584,-0.250459,0.430275,-0.041284,-0.197761,0.587236,1.474104,-15.527213,130.154182,20.257096,
585,-0.250459,0.430275,-0.041284,-0.111717,0.582443,1.498737,10.468438,108.564573,15.97694,
586,-0.250459,0.430275,-0.041284,-0.052662,0.569129,1.528242,35.142276,82.065374,12.51505,
587,-0.241284,0.433945,-0.048624,-0.048386,0.528388,1.532032,59.249623,53.174324,8.738442,
588,-0.241284,0.433945,-0.048624,-0.071634,0.476197,1.533115,82.412819,25.919803,2.066434,
589,-0.241284,0.433945,-0.048624,-0.1037,0.438119,1.496571,102.05118,3.51193,-6.242103,
590,-0.234862,0.433028,-0.055963,-0.099959,0.389389,1.462735,116.024629,-15.622884,-14.110036,
591,-0.234862,0.433028,-0.055963,-0.100494,0.330009,1.411575,126.850905,-33.372941,-22.481517,
592,-0.234862,0.431193,-0.057798,-0.075375,0.260776,1.344444,133.774686,-48.919977,-29.782959,
593,-0.234862,0.431193,-0.057798,-0.047852,0.187282,1.307359,137.29952,-64.529956,-36.895571,
594,-0.234862,0.431193,-0.057798,-0.044378,0.134026,1.234814,139.502542,-80.328766,-42.560482,
595,-0.236697,0.422018,-0.06422,-0.060144,0.09941,1.174721,139.691372,-95.498141,-46.777695,
596,-0.236697,0.422018,-0.06422,-0.086866,0.093285,1.082145,138.432503,-107.4574,-48.351281,
597,-0.236697,0.422018,-0.06422,-0.092744,0.07864,0.965749,133.271139,-115.136502,-47.155355,
598,-0.242202,0.415596,-0.06789,-0.097822,0.047751,0.84448,125.214375,-119.983149,-42.938143,
599,-0.242202,0.415596,-0.06789,-0.107174,0.004348,0.772206,116.654064,-126.151609,-37.147344,
600,-0.250459,0.402752,-0.06422,-0.135499,-0.03373,0.672321,109.478509,-135.152524,-33.181906,
601,-0.250459,0.402752,-0.06422,-0.190279,-0.099235,0.559714,98.274572,-138.362641,-30.978885,
602,-0.250459,0.402752,-0.06422,-0.273918,-0.177256,0.449002,81.594554,-134.019542,-28.71292,
603,-0.257798,0.395413,-0.065138,-0.369581,-0.230245,0.375645,61.01204,-124.955683,-26.384012,
604,-0.257798,0.395413,-0.065138,-0.429972,-0.269122,0.276573,34.261068,-109.408647,-22.859178,
605,-0.257798,0.395413,-0.065138,-0.445204,-0.270454,0.191305,-2.183199,-81.524692,-15.117132,
606,-0.269725,0.388991,-0.058716,-0.416611,-0.258737,0.179666,-44.607094,-46.087521,-4.416742,
607,-0.269725,0.388991,-0.058716,-0.349006,-0.219594,0.178583,-86.212725,-14.049297,7.038968,
608,-0.277982,0.385321,-0.052294,-0.280064,-0.159681,0.22054,-120.391027,10.561598,18.809396,
609,-0.277982,0.385321,-0.052294,-0.223948,-0.088318,0.281986,-144.687204,27.115729,29.698616,
610,-0.277982,0.385321,-0.052294,-0.212992,-0.008434,0.352907,-158.345936,40.082083,40.084288,
611,-0.274312,0.387156,-0.051376,-0.206579,0.048284,0.392969,-167.346852,50.278924,49.336977,
612,-0.274312,0.387156,-0.051376,-0.216199,0.075711,0.402985,-177.48075,61.042257,58.65261,
613,-0.274312,0.387156,-0.051376,-0.264031,0.076243,0.485816,-190.57299,70.232003,67.905299,
614,-0.270642,0.4,-0.045872,-0.348471,0.119381,0.628199,-199.82568,77.155784,69.164168,
615,-0.270642,0.4,-0.045872,-0.408328,0.200596,0.750821,-201.021606,88.045004,61.862727,
616,-0.266972,0.408257,-0.041284,-0.437454,0.275954,0.853142,-195.986128,102.584944,54.813058,
617,-0.266972,0.408257,-0.041284,-0.455892,0.314298,0.97035,-186.733439,113.474164,51.288224,
618,-0.266972,0.408257,-0.041284,-0.454289,0.373679,1.074566,-172.130555,122.034475,44.49033,
619,-0.257798,0.423853,-0.03578,-0.409397,0.437586,1.115711,-156.142915,131.538938,34.985867,
620,-0.257798,0.423853,-0.03578,-0.311061,0.475664,1.14684,-141.791805,137.329737,29.698616,
621,-0.257798,0.423853,-0.03578,-0.227155,0.495635,1.212076,-127.251864,131.790712,27.432651,
622,-0.251376,0.433945,-0.034862,-0.169436,0.535844,1.314127,-108.872372,116.558393,24.222534,
623,-0.251376,0.433945,-0.034862,-0.10183,0.600017,1.398311,-84.702082,97.549467,19.879435,
624,-0.241284,0.440367,-0.034862,-0.065755,0.66499,1.451366,-57.699335,73.568007,19.187057,
625,-0.241284,0.440367,-0.034862,-0.067359,0.671114,1.467337,-30.193041,46.187599,20.382983,
626,-0.241284,0.440367,-0.034862,-0.12962,0.635166,1.497384,-4.512107,19.625457,18.179962,
627,-0.237615,0.446789,-0.034862,-0.197493,0.588035,1.501444,18.525201,-1.964152,10.123198,
628,-0.237615,0.446789,-0.034862,-0.248799,0.54969,1.518227,38.47828,-16.441149,-0.703078,
629,-0.237615,0.446789,-0.034862,-0.277124,0.528121,1.506587,56.983659,-25.379121,-11.025806,
630,-0.23578,0.448624,-0.034862,-0.279529,0.505221,1.478977,73.034242,-30.918146,-18.767853,
631,-0.23578,0.448624,-0.034862,-0.249334,0.478593,1.454344,88.014787,-35.009471,-24.684538,
632,-0.237615,0.447706,-0.036697,-0.215664,0.437053,1.409139,101.547632,-39.415514,-28.52409,
633,-0.237615,0.447706,-0.036697,-0.187606,0.399508,1.387213,112.940399,-46.779899,-33.24485,
634,-0.237615,0.447706,-0.036697,-0.191615,0.385928,1.359602,126.284414,-53.892511,-37.776779,
635,-0.238532,0.443119,-0.038532,-0.189744,0.391253,1.335782,141.894393,-59.68331,-42.182822,
636,-0.238532,0.443119,-0.038532,-0.189744,0.389656,1.259718,158.889129,-64.404069,-44.637617,
637,-0.238532,0.443119,-0.038532,-0.182262,0.328411,1.186632,175.317373,-64.844674,-43.693465,
638,-0.243119,0.433028,-0.046789,-0.164359,0.218703,1.064009,185.010667,-62.830483,-41.61633,
639,-0.243119,0.433028,-0.046789,-0.159549,0.102339,0.95438,189.731427,-61.005122,-42.182822,
640,-0.248624,0.424771,-0.045872,-0.168634,0.014999,0.806854,191.05324,-57.920893,-45.392938,
641,-0.248624,0.424771,-0.045872,-0.176651,-0.039056,0.655538,183.500024,-52.822472,-48.540112,
642,-0.248624,0.424771,-0.045872,-0.128819,-0.074738,0.512614,166.127628,-52.759528,-47.470073,
643,-0.254128,0.412844,-0.055963,-0.083392,-0.09604,0.406504,146.489266,-54.521945,-40.357461,
644,-0.254128,0.412844,-0.055963,-0.039835,-0.166338,0.285235,120.556559,-59.557423,-30.412394,
645,-0.254128,0.412844,-0.055963,-0.037965,-0.249151,0.188598,87.574183,-67.803017,-20.152609,
646,-0.256881,0.4,-0.056881,-0.079918,-0.306668,0.159635,49.871047,-79.006953,-13.165884,
647,-0.256881,0.4,-0.056881,-0.113053,-0.348474,0.092774,7.447151,-85.993678,-5.675612,
648,-0.26055,0.39633,-0.061468,-0.162488,-0.315721,0.111452,-39.005126,-76.866876,5.905986,
649,-0.26055,0.39633,-0.061468,-0.163022,-0.251282,0.092774,-85.079743,-54.584889,21.327135,
650,-0.26055,0.39633,-0.061468,-0.166229,-0.194564,0.104685,-131.154359,-31.925241,40.399005,
651,-0.26789,0.395413,-0.058716,-0.197226,-0.155687,0.179936,-172.319386,-19.714209,56.449588,
652,-0.26789,0.395413,-0.058716,-0.251471,-0.072075,0.282528,-204.483496,-11.279785,64.632239,
653,-0.26789,0.395413,-0.058716,-0.278995,0.041361,0.405421,-228.024352,4.833742,67.590582,
654,-0.266972,0.40367,-0.049541,-0.282736,0.164382,0.489876,-247.159166,27.68222,71.304246,
655,-0.266972,0.40367,-0.049541,-0.264565,0.251722,0.560797,-261.321445,49.586546,81.375201,
656,-0.266055,0.414679,-0.041284,-0.295562,0.2898,0.651478,-272.777156,64.0006,95.34865,
657,-0.266055,0.414679,-0.041284,-0.437187,0.304712,0.814162,-278.064407,70.043172,99.565862,
658,-0.266055,0.414679,-0.041284,-0.628515,0.398975,1.019616,-268.245227,76.589293,83.578222,
659,-0.26055,0.430275,-0.027523,-0.719101,0.545163,1.176345,-244.578484,95.724106,56.197815,
660,-0.26055,0.430275,-0.027523,-0.670468,0.681233,1.227235,-213.547355,121.719758,36.49651,
661,-0.26055,0.430275,-0.027523,-0.527507,0.729163,1.268921,-181.320301,146.015935,29.069181,
662,-0.253211,0.445872,-0.021101,-0.340722,0.758454,1.328744,-150.666833,159.54878,26.299669,
663,-0.253211,0.445872,-0.021101,-0.110381,0.791473,1.397499,-117.495627,154.198586,24.914912,
664,-0.244037,0.458716,-0.015596,0.066517,0.823426,1.436478,-81.177248,128.706482,27.243821,
665,-0.244037,0.458716,-0.015596,0.125037,0.814107,1.43729,-47.313663,87.289682,32.027524,
666,-0.244037,0.458716,-0.015596,0.086291,0.764578,1.459758,-17.667291,43.606917,34.293489,
667,-0.23578,0.46422,-0.018349,-0.041439,0.704665,1.490887,6.565943,7.036764,29.572729,
668,-0.23578,0.46422,-0.018349,-0.192684,0.668185,1.507128,26.078417,-16.378205,19.187057,
669,-0.23578,0.46422,-0.018349,-0.301975,0.626645,1.493323,41.625453,-28.841012,7.605459,
670,-0.231193,0.466055,-0.017431,-0.357289,0.598952,1.522828,55.787733,-32.680563,-2.780212,
671,-0.231193,0.466055,-0.017431,-0.351678,0.577916,1.51552,70.579447,-28.841012,-13.480601,
672,-0.230275,0.466972,-0.017431,-0.296364,0.55901,1.485744,84.993501,-24.686743,-23.236839,
673,-0.230275,0.466972,-0.017431,-0.235706,0.545163,1.42159,99.029894,-25.316177,-30.664168,
674,-0.230275,0.466972,-0.017431,-0.16329,0.508683,1.376656,111.4927,-29.659277,-35.888475,
675,-0.233945,0.463303,-0.017431,-0.120535,0.468475,1.307901,123.137241,-37.653097,-39.665083,
676,-0.233945,0.463303,-0.017431,-0.103166,0.440781,1.261613,133.711743,-49.423525,-43.567578,
677,-0.233945,0.463303,-0.017431,-0.091408,0.397644,1.182301,142.460885,-61.949274,-46.274147,
678,-0.23945,0.455046,-0.022936,-0.087934,0.350779,1.112192,149.384666,-73.530872,-48.099507,
679,-0.23945,0.455046,-0.022936,-0.091943,0.305245,1.039376,154.860747,-80.76937,-48.603055,
680,-0.240367,0.446789,-0.027523,-0.102364,0.267167,0.980637,161.155094,-85.553074,-48.351281,
681,-0.240367,0.446789,-0.027523,-0.104235,0.234947,0.89564,166.064684,-90.462664,-46.840638,
682,-0.240367,0.446789,-0.027523,-0.103166,0.197667,0.80144,167.952988,-96.694067,-44.574673,
683,-0.249541,0.440367,-0.033945,-0.099425,0.132162,0.705074,166.945893,-102.547809,-41.868104,
684,-0.249541,0.440367,-0.033945,-0.120802,0.072516,0.6328,162.53985,-106.324417,-38.657988,
685,-0.249541,0.440367,-0.033945,-0.159014,0.013135,0.541307,153.979539,-107.079739,-36.014362,
686,-0.255046,0.429358,-0.037615,-0.169436,-0.058761,0.421392,140.19492,-102.610753,-33.559567,
687,-0.255046,0.429358,-0.037615,-0.170772,-0.131988,0.29525,116.968781,-93.043346,-25.880464,
688,-0.263303,0.420183,-0.038532,-0.175314,-0.198025,0.221081,87.448296,-84.420091,-14.739471,
689,-0.263303,0.420183,-0.038532,-0.188408,-0.239831,0.16586,54.340033,-75.230345,-3.409647,
690,-0.263303,0.420183,-0.038532,-0.204708,-0.261134,0.064893,13.426781,-70.194868,8.423724,
691,-0.26789,0.410092,-0.040367,-0.237309,-0.25208,0.039719,-40.452826,-56.724967,25.481404,
692,-0.26789,0.410092,-0.040367,-0.276055,-0.210807,0.061916,-97.290775,-33.687658,40.713722,
693,-0.26789,0.410092,-0.040367,-0.295829,-0.125331,0.13446,-149.470908,-9.391481,53.994793,
694,-0.268807,0.411009,-0.037615,-0.311862,-0.014558,0.259519,-190.761821,13.519941,65.072843,
695,-0.268807,0.411009,-0.037615,-0.323085,0.091688,0.380517,-218.960493,35.046606,74.073759,
696,-0.266972,0.417431,-0.030275,-0.345264,0.20246,0.515592,-234.633416,53.929645,80.305162,
697,-0.266972,0.417431,-0.030275,-0.36103,0.307641,0.577309,-244.137879,72.812685,84.774148,
698,-0.266972,0.417431,-0.030275,-0.388554,0.36569,0.678006,-251.187548,88.800325,89.18019,
699,-0.26055,0.434862,-0.022018,-0.425964,0.417349,0.817681,-251.942869,102.773774,89.18019,
700,-0.26055,0.434862,-0.022018,-0.469788,0.496168,0.969538,-242.564293,114.670089,82.004635,
701,-0.26055,0.434862,-0.022018,-0.46765,0.578715,1.097304,-222.862988,125.433422,71.933681,
702,-0.255963,0.444954,-0.013761,-0.436118,0.656469,1.179864,-196.174959,132.986638,65.891108,
703,-0.255963,0.444954,-0.013761,-0.387218,0.701736,1.242664,-166.780361,140.225136,62.680992,
704,-0.245872,0.461468,-0.010092,-0.333507,0.718778,1.339842,-137.826367,143.435253,61.107405,
705,-0.245872,0.461468,-0.010092,-0.275254,0.752063,1.404808,-105.662256,137.959172,56.008984,
706,-0.245872,0.461468,-0.010092,-0.205777,0.806384,1.465984,-70.162141,126.1258,48.896373,
707,-0.236697,0.472477,-0.00367,-0.135766,0.833811,1.485202,-37.116822,107.872195,43.105574,
708,-0.236697,0.472477,-0.00367,-0.109846,0.821829,1.503609,-5.645089,82.946583,38.447757,
709,-0.236697,0.472477,-0.00367,-0.107441,0.784283,1.540965,23.686566,54.936741,31.272202,
710,-0.230275,0.475229,-0.007339,-0.129086,0.724636,1.548544,51.696408,28.185768,20.949474,
711,-0.230275,0.475229,-0.007339,-0.169703,0.681499,1.53528,76.181416,5.966725,7.605459,
712,-0.221101,0.477064,-0.008257,-0.194554,0.621852,1.50009,98.274572,-11.909219,-5.990329,
713,-0.221101,0.477064,-0.008257,-0.188675,0.57765,1.459216,116.21346,-27.330368,-18.704909,
714,-0.221101,0.477064,-0.008257,-0.167298,0.549158,1.441621,131.131061,-41.429705,-30.412394,
715,-0.221101,0.475229,-0.013761,-0.13443,0.521464,1.379633,143.845641,-55.529041,-40.672179,
716,-0.221101,0.475229,-0.013761,-0.107709,0.48099,1.322247,154.294256,-66.166486,-48.414225,
717,-0.221101,0.475229,-0.013761,-0.089805,0.434124,1.265132,164.050493,-78.188688,-53.764419,
718,-0.222936,0.473394,-0.019266,-0.072169,0.386993,1.176887,171.226048,-92.728629,-57.729858,
719,-0.222936,0.473394,-0.019266,-0.069497,0.329742,1.09189,175.820921,-105.254378,-61.128805,
720,-0.230275,0.459633,-0.024771,-0.06816,0.27409,0.997961,180.352851,-115.199446,-63.5836,
721,-0.230275,0.459633,-0.024771,-0.070031,0.202194,0.843397,183.877685,-123.067379,-64.150091,
722,-0.230275,0.459633,-0.024771,-0.055067,0.120446,0.745137,182.178211,-130.620595,-63.77243,
723,-0.241284,0.451376,-0.029358,-0.067893,0.060533,0.616018,176.828017,-133.453051,-62.387674,
724,-0.241284,0.451376,-0.029358,-0.084728,-0.016688,0.466867,162.53985,-133.830712,-59.05167,
725,-0.241284,0.451376,-0.029358,-0.098089,-0.080862,0.37754,143.153263,-136.285507,-54.393854,
726,-0.248624,0.438532,-0.033028,-0.118664,-0.125331,0.286859,120.493615,-138.425585,-49.169546,
727,-0.248624,0.438532,-0.033028,-0.155006,-0.1698,0.179395,88.518335,-138.299698,-41.301613,
728,-0.257798,0.42844,-0.03211,-0.203639,-0.198292,0.141228,51.19286,-133.578938,-31.923037,
729,-0.257798,0.42844,-0.03211,-0.259488,-0.199357,0.101978,9.020738,-123.319153,-18.956683,
730,-0.257798,0.42844,-0.03211,-0.318543,-0.200955,0.074097,-38.249804,-108.338608,-4.102025,
731,-0.266055,0.422018,-0.029358,-0.334576,-0.186842,0.085195,-86.527442,-86.497226,11.319124,
732,-0.266055,0.422018,-0.029358,-0.329766,-0.152491,0.124445,-137.259875,-53.200133,28.943294,
733,-0.266055,0.422018,-0.029358,-0.341523,-0.069412,0.177229,-181.760905,-16.252318,45.875086,
734,-0.272477,0.423853,-0.022936,-0.336446,0.031508,0.262226,-217.827511,14.527036,59.659705,
735,-0.272477,0.423853,-0.022936,-0.329766,0.147074,0.346681,-243.571388,36.683136,69.164168,
736,-0.27156,0.429358,-0.015596,-0.343127,0.251722,0.485274,-260.31435,52.167228,76.025006,
737,-0.27156,0.429358,-0.015596,-0.424094,0.367288,0.624138,-265.03511,60.790483,77.032102,
738,-0.27156,0.429358,-0.015596,-0.558771,0.484718,0.808207,-258.929594,62.489957,68.345903,
739,-0.266055,0.443119,-0.00367,-0.667528,0.585372,0.999044,-238.913572,61.356974,51.665885,
740,-0.266055,0.443119,-0.00367,-0.69612,0.696943,1.202061,-205.868253,66.392452,33.41228,
741,-0.266055,0.443119,-0.00367,-0.661115,0.806118,1.318458,-164.199678,86.786134,21.767739,
742,-0.259633,0.456881,0.005505,-0.546212,0.878546,1.415094,-119.761592,107.431591,17.865244,
743,-0.259633,0.456881,0.005505,-0.406992,0.893991,1.440268,-76.582375,113.725937,19.438831,
744,-0.255046,0.466055,0.011009,-0.295829,0.872156,1.44108,-37.116822,104.032644,21.578909,
745,-0.255046,0.466055,0.011009,-0.238378,0.846327,1.454885,-1.11316,81.184166,17.928188,
746,-0.255046,0.466055,0.011009,-0.239714,0.810645,1.473563,30.610347,54.55908,11.004407,
747,-0.250459,0.472477,0.010092,-0.280598,0.763513,1.479518,58.179585,28.626372,2.318208,
748,-0.250459,0.472477,0.010092,-0.358625,0.731293,1.495489,81.972214,8.106803,-7.060368,
749,-0.250459,0.472477,0.010092,-0.403518,0.69002,1.477623,103.939484,-6.118421,-17.886644,
750,-0.244954,0.468807,0.010092,-0.40138,0.625314,1.448389,119.48652,-14.867562,-28.083485,
751,-0.244954,0.468807,0.010092,-0.372521,0.570726,1.408868,131.697552,-21.53957,-37.462062,
752,-0.247706,0.466055,0.001835,-0.296898,0.501227,1.352564,141.83145,-27.770973,-44.637617,
753,-0.247706,0.466055,0.001835,-0.231964,0.441847,1.326308,149.573496,-36.646001,-50.554303,
754,-0.247706,0.466055,0.001835,-0.162755,0.380602,1.257282,154.923691,-49.297638,-54.897402,
755,-0.252294,0.459633,-0.001835,-0.105838,0.286871,1.201249,156.560221,-64.718787,-57.666914,
756,-0.252294,0.459633,-0.001835,-0.075108,0.188614,1.120854,153.538934,-77.622197,-58.86284,
757,-0.252294,0.459633,-0.001835,-0.103968,0.093019,1.003375,146.111606,-87.819039,-59.995822,
758,-0.256881,0.451376,-0.009174,-0.126147,0.047485,0.912964,135.977708,-100.407732,-62.072957,
759,-0.256881,0.451376,-0.009174,-0.137637,0.054408,0.80929,125.025545,-111.863442,-64.401865,
760,-0.256881,0.451376,-0.009174,-0.13924,0.098611,0.702368,108.849074,-122.563831,-62.1359,
761,-0.26422,0.441284,-0.012844,-0.156075,0.134026,0.6485,92.42083,-134.145429,-58.170462,
762,-0.26422,0.441284,-0.012844,-0.191882,0.136955,0.585971,78.25855,-147.363557,-54.079137,
763,-0.272477,0.43211,-0.011927,-0.241852,0.103138,0.524795,65.795744,-156.993907,-50.176642,
764,-0.272477,0.43211,-0.011927,-0.282201,0.069586,0.453062,54.402977,-159.133985,-45.141165,
765,-0.272477,0.43211,-0.011927,-0.339653,0.021123,0.408669,40.996018,-155.546207,-39.350366,
766,-0.279817,0.426606,-0.006422,-0.401113,-0.015091,0.359404,25.260152,-145.9788,-32.993076,
767,-0.279817,0.426606,-0.006422,-0.456694,-0.05237,0.32665,6.251226,-129.298782,-26.384012,
768,-0.279817,0.426606,-0.006422,-0.483683,-0.06382,0.320966,-13.764796,-104.37317,-20.026722,
769,-0.286239,0.422018,0,-0.475666,-0.059293,0.321236,-36.109727,-73.530872,-10.018711,
770,-0.286239,0.422018,0,-0.441997,-0.048908,0.303371,-61.098282,-40.61144,3.136473,
771,-0.293578,0.421101,0.00367,-0.401647,-0.008966,0.301476,-86.716273,-9.01382,18.179962,
772,-0.293578,0.421101,0.00367,-0.360229,0.038964,0.300123,-109.690638,16.730057,32.845789,
773,-0.293578,0.421101,0.00367,-0.310794,0.075977,0.354531,-130.839642,38.004949,45.308595,
774,-0.295413,0.423853,0.011927,-0.278193,0.124174,0.37754,-148.212038,55.629119,57.01608,
775,-0.295413,0.423853,0.011927,-0.266435,0.172104,0.450355,-160.800731,67.147773,68.408847,
776,-0.295413,0.423853,0.011927,-0.303311,0.232018,0.548345,-167.976286,71.742646,77.283876,
777,-0.290826,0.426606,0.012844,-0.380804,0.305245,0.647688,-168.668665,73.253289,81.123427,
778,-0.290826,0.426606,0.012844,-0.452419,0.362229,0.708052,-167.346852,75.07865,79.738671,
779,-0.287156,0.436697,0.021101,-0.513878,0.4051,0.81335,-163.570244,78.477597,75.332628,
780,-0.287156,0.436697,0.021101,-0.577743,0.44371,0.960876,-153.68812,82.002431,68.09413,
781,-0.287156,0.436697,0.021101,-0.629316,0.498564,1.097845,-135.245684,83.513074,54.435398,
782,-0.279817,0.446789,0.021101,-0.636798,0.589366,1.200978,-110.194185,87.037908,38.699531,
783,-0.279817,0.446789,0.021101,-0.596181,0.681765,1.263237,-83.254382,90.87746,26.299669,
784,-0.279817,0.446789,0.021101,-0.527239,0.732891,1.298697,-55.685144,88.800325,19.438831,
785,-0.272477,0.456881,0.02844,-0.472994,0.752063,1.327932,-29.752437,78.918201,15.158675,
786,-0.272477,0.456881,0.02844,-0.439058,0.75872,1.353106,-4.952711,62.804674,10.123198,
787,-0.27156,0.461468,0.024771,-0.420887,0.727299,1.37449,17.014558,45.180504,3.577078,
788,-0.27156,0.461468,0.024771,-0.421689,0.683895,1.389649,36.464089,27.871051,-3.976138,
789,-0.27156,0.461468,0.024771,-0.440928,0.640225,1.404808,52.451729,12.953449,-11.844071,
790,-0.266972,0.462385,0.025688,-0.452151,0.612266,1.387213,65.35514,1.434795,-19.019626,
791,-0.266972,0.462385,0.025688,-0.437187,0.579247,1.384235,75.992585,-10.272689,-24.055104,
792,-0.266972,0.462385,0.025688,-0.421689,0.536376,1.367182,85.748822,-20.469531,-28.71292,
793,-0.26422,0.46055,0.019266,-0.406457,0.484451,1.329827,93.868529,-27.770973,-32.930132,
794,-0.26422,0.46055,0.019266,-0.38027,0.427734,1.27623,99.218724,-34.568867,-37.776779,
795,-0.26789,0.459633,0.014679,-0.358358,0.365424,1.191775,101.358802,-42.4368,-42.686369,
796,-0.26789,0.459633,0.014679,-0.337248,0.318292,1.123832,101.232915,-51.122998,-47.721847,
797,-0.26789,0.459633,0.014679,-0.315871,0.272226,1.053723,99.029894,-60.06097,-52.50555,
798,-0.27156,0.454128,0.011009,-0.303846,0.249059,0.990382,94.686794,-69.754264,-56.470988,
799,-0.27156,0.454128,0.011009,-0.303311,0.236012,0.931371,91.476678,-77.685141,-57.855745,
800,-0.27156,0.454128,0.011009,-0.303044,0.227224,0.848269,91.224904,-85.867791,-58.233405,
801,-0.275229,0.442202,0.008257,-0.296364,0.250125,0.802794,91.350791,-95.246367,-57.855745,
802,-0.275229,0.442202,0.008257,-0.299838,0.249858,0.735392,92.672604,-103.051357,-56.911593,
803,-0.280734,0.436697,0.007339,-0.318008,0.221899,0.667178,93.302038,-106.450304,-54.834458,
804,-0.280734,0.436697,0.007339,-0.336179,0.178229,0.569459,92.42083,-104.687887,-51.876115,
805,-0.280734,0.436697,0.007339,-0.346868,0.122044,0.495561,87.385352,-99.778297,-48.288338,
806,-0.283486,0.429358,0.011009,-0.343661,0.040029,0.414354,78.006776,-90.714438,-43.693465,
807,-0.283486,0.429358,0.011009,-0.347402,-0.026807,0.373209,63.844496,-80.014049,-36.70674,
808,-0.283486,0.429358,0.011009,-0.361832,-0.078732,0.313116,44.83557,-66.921808,-29.027637,
809,-0.294495,0.424771,0.012844,-0.373055,-0.124798,0.272512,21.23177,-51.248885,-19.397287,
810,-0.294495,0.424771,0.012844,-0.365573,-0.145568,0.235698,-6.966902,-31.988185,-9.389276,
811,-0.298165,0.419266,0.014679,-0.336446,-0.139177,0.215397,-38.879239,-7.943781,3.577078,
812,-0.298165,0.419266,0.014679,-0.292356,-0.104028,0.198343,-71.798671,15.911792,17.487583,
813,-0.298165,0.419266,0.014679,-0.251471,-0.055565,0.21296,-103.522178,36.746079,32.656959,
814,-0.3,0.420183,0.016514,-0.240515,0.027248,0.288483,-130.965529,53.677872,46.567464,
815,-0.3,0.420183,0.016514,-0.237843,0.12444,0.382954,-149.659738,64.881808,56.134871,
816,-0.3,0.420183,0.016514,-0.240248,0.212845,0.467409,-159.856579,73.945667,66.079939,
817,-0.298165,0.423853,0.020183,-0.309457,0.282611,0.579745,-163.947905,78.981145,77.72448,
818,-0.298165,0.423853,0.020183,-0.432377,0.341193,0.740535,-160.611901,82.128318,82.948787,
819,-0.293578,0.430275,0.022936,-0.565986,0.412822,0.862616,-152.303364,86.723191,79.172179,
820,-0.293578,0.430275,0.022936,-0.648556,0.507618,1.001209,-137.763423,98.997167,69.415942,
821,-0.293578,0.430275,0.022936,-0.660046,0.580579,1.120854,-116.614419,117.061941,60.729744,
822,-0.288073,0.441284,0.02844,-0.635729,0.633036,1.21343,-91.814693,134.371394,56.827249,
823,-0.288073,0.441284,0.02844,-0.595112,0.668717,1.255116,-65.756099,145.575331,54.057737,
824,-0.288073,0.441284,0.02844,-0.523498,0.686026,1.284892,-41.271091,147.337748,48.392825,
825,-0.281651,0.448624,0.024771,-0.437187,0.676706,1.318728,-18.800274,141.169288,41.720818,
826,-0.281651,0.448624,0.024771,-0.367711,0.65061,1.315751,1.467522,126.566404,34.734093,
827,-0.27156,0.456881,0.019266,-0.316405,0.626113,1.349587,19.721127,104.284418,26.173782,
828,-0.27156,0.456881,0.019266,-0.289951,0.600017,1.362309,37.597071,80.806505,16.165771,
829,-0.27156,0.456881,0.019266,-0.2814,0.580845,1.388025,53.773542,56.950932,5.968929,
830,-0.266055,0.456881,0.016514,-0.264565,0.555548,1.376927,68.942917,33.032415,-3.976138,
831,-0.266055,0.456881,0.016514,-0.260824,0.538506,1.371513,84.301123,10.24688,-13.228828,
832,-0.266055,0.456881,0.016514,-0.259488,0.512145,1.383152,97.33042,-9.957972,-21.977969,
833,-0.263303,0.455963,0.009174,-0.25067,0.481522,1.35094,108.660244,-27.959803,-28.90175,
834,-0.263303,0.455963,0.009174,-0.24292,0.44664,1.296532,117.661159,-45.961634,-36.203192,
835,-0.26422,0.451376,0.005505,-0.241317,0.406698,1.251327,123.577845,-62.389879,-42.119878,
836,-0.26422,0.451376,0.005505,-0.231697,0.344122,1.191504,125.906753,-76.363328,-47.092412,
837,-0.26422,0.451376,0.005505,-0.234637,0.278617,1.089183,125.84381,-88.448473,-50.86902,
838,-0.266972,0.445872,-0.000917,-0.229292,0.226159,1.013119,123.389015,-98.078823,-54.456797,
839,-0.266972,0.445872,-0.000917,-0.240515,0.18675,0.926228,119.549463,-106.953852,-57.22631,
840,-0.266972,0.445872,-0.000917,-0.231697,0.172637,0.845021,116.779951,-115.954768,-59.05167,
841,-0.273394,0.437615,-0.002752,-0.220474,0.153731,0.743242,113.192173,-123.507983,-58.548123,
842,-0.273394,0.437615,-0.002752,-0.235171,0.14734,0.657433,108.723187,-126.340439,-56.596875,
843,-0.280734,0.43211,-0.00367,-0.263496,0.128168,0.559173,101.484689,-128.606404,-53.072041,
844,-0.280734,0.43211,-0.00367,-0.284339,0.088759,0.486899,92.483773,-129.109952,-49.987811,
845,-0.280734,0.43211,-0.00367,-0.315336,0.049882,0.440069,81.53161,-123.319153,-42.938143,
846,-0.284404,0.422936,0,-0.392829,0.010472,0.390262,67.621104,-110.352799,-33.307793,
847,-0.284404,0.422936,0,-0.476735,-0.044382,0.348305,49.619273,-91.910364,-23.929217,
848,-0.284404,0.422936,0,-0.5243,-0.080063,0.313657,26.959626,-64.152296,-14.928301,
849,-0.29633,0.416514,0.00367,-0.544608,-0.117609,0.281716,-0.924329,-28.463351,-3.409647,
850,-0.29633,0.416514,0.00367,-0.502655,-0.13971,0.260602,-33.403158,15.911792,8.990216,
851,-0.297248,0.414679,0.005505,-0.430774,-0.12613,0.243007,-67.077911,61.356974,22.397174,
852,-0.297248,0.414679,0.005505,-0.348738,-0.085921,0.273866,-97.353718,92.954594,35.237641,
853,-0.297248,0.414679,0.005505,-0.278995,-0.012961,0.314469,-123.223483,112.341181,46.378634,
854,-0.3,0.417431,0.007339,-0.242119,0.09941,0.383495,-141.665918,125.559309,55.442493,
855,-0.3,0.417431,0.007339,-0.219672,0.198466,0.457393,-154.506385,133.741959,64.758126,
856,-0.3,0.417431,0.007339,-0.243455,0.250923,0.568647,-162.374318,136.637359,74.577306,
857,-0.291743,0.421101,0.006422,-0.36878,0.291132,0.706699,-164.703226,132.231316,80.934596,
858,-0.291743,0.421101,0.006422,-0.50987,0.358234,0.898347,-160.989562,125.93697,74.64025,
859,-0.285321,0.43211,0.004587,-0.598586,0.488179,1.100282,-146.512565,133.553129,58.463779,
860,-0.285321,0.43211,0.004587,-0.590035,0.639427,1.230754,-122.0905,149.540769,44.867991,
861,-0.285321,0.43211,0.004587,-0.517085,0.718778,1.308713,-93.073563,157.345759,41.280213,
862,-0.274312,0.442202,0.004587,-0.407793,0.725702,1.334699,-62.231265,152.184395,41.469044,
863,-0.274312,0.442202,0.004587,-0.309725,0.683629,1.360685,-35.857953,135.882037,39.203079,
864,-0.274312,0.442202,0.004587,-0.236507,0.651409,1.386942,-10.74351,111.397029,30.453937,
865,-0.269725,0.447706,0.00367,-0.197226,0.624781,1.399935,9.335455,81.939487,20.571813,
866,-0.269725,0.447706,0.00367,-0.183331,0.585638,1.435125,25.826643,48.894168,11.822672,
867,-0.26055,0.450459,-0.004587,-0.217535,0.561406,1.446223,40.933075,15.974736,2.947643,
868,-0.26055,0.450459,-0.004587,-0.262694,0.529187,1.441351,55.724789,-12.09805,-7.375085,
869,-0.26055,0.450459,-0.004587,-0.302243,0.509482,1.439185,66.928726,-32.680563,-17.131322,
870,-0.259633,0.451376,-0.007339,-0.317474,0.492706,1.41753,75.551981,-48.79409,-25.376916,
871,-0.259633,0.451376,-0.007339,-0.323887,0.466344,1.411033,82.412819,-63.585804,-31.923037,
872,-0.259633,0.451376,-0.007339,-0.316138,0.453563,1.381528,89.840148,-76.992762,-38.028553,
873,-0.257798,0.445872,-0.011927,-0.308923,0.403768,1.34688,97.51925,-87.441378,-43.06403,
874,-0.257798,0.445872,-0.011927,-0.309992,0.345986,1.29572,102.932388,-96.316406,-46.777695,
875,-0.265138,0.443119,-0.011009,-0.320681,0.273557,1.224528,106.331335,-102.107205,-50.176642,
876,-0.265138,0.443119,-0.011009,-0.352212,0.206188,1.139532,106.96077,-106.324417,-54.645628,
877,-0.265138,0.443119,-0.011009,-0.379201,0.188081,1.018533,105.009523,-107.142682,-58.548123,
878,-0.269725,0.438532,-0.011009,-0.367978,0.208585,0.943282,104.443032,-105.632039,-61.506466,
879,-0.269725,0.438532,-0.011009,-0.334041,0.212845,0.847728,103.561823,-104.499057,-59.366388,
880,-0.269725,0.438532,-0.011009,-0.291821,0.205656,0.747031,101.988236,-106.324417,-55.715667,
881,-0.277982,0.429358,-0.008257,-0.292356,0.171306,0.626574,101.358802,-107.142682,-52.379663,
882,-0.277982,0.429358,-0.008257,-0.287278,0.122843,0.521818,98.526346,-106.19853,-49.484264,
883,-0.283486,0.422936,-0.011927,-0.284339,0.052811,0.409481,93.302038,-100.470675,-43.882295,
884,-0.283486,0.422936,-0.011927,-0.287278,-0.02015,0.293897,83.16814,-91.092099,-36.266136,
885,-0.283486,0.422936,-0.011927,-0.293959,-0.111751,0.16965,64.473931,-80.139936,-27.642881,
886,-0.293578,0.414679,-0.004587,-0.310526,-0.20628,0.068412,38.47828,-69.565434,-20.089665,
887,-0.293578,0.414679,-0.004587,-0.335645,-0.285365,0.014003,2.915222,-51.060055,-11.08875,
888,-0.293578,0.414679,-0.004587,-0.331369,-0.299745,-0.005216,-36.676218,-23.301987,-1.521343,
889,-0.299083,0.411009,-0.004587,-0.295829,-0.254211,0.002364,-78.533622,6.97382,8.738442,
890,-0.299083,0.411009,-0.004587,-0.244791,-0.157018,0.003988,-118.439779,36.746079,21.767739,
891,-0.3,0.406422,-0.001835,-0.192684,-0.076868,0.076533,-153.436346,61.1052,38.447757,
892,-0.3,0.406422,-0.001835,-0.144852,0.026715,0.173169,-179.054336,78.225823,54.624228,
893,-0.3,0.406422,-0.001835,-0.120535,0.124973,0.248692,-194.538429,90.940403,70.045377,
894,-0.29633,0.415596,0.001835,-0.120001,0.195537,0.317988,-205.616479,100.885471,85.592413,
895,-0.29633,0.415596,0.001835,-0.137904,0.247994,0.400819,-216.316868,104.976796,99.377032,
896,-0.29633,0.415596,0.001835,-0.189744,0.30844,0.543473,-222.674158,106.424495,109.133269,
897,-0.292661,0.423853,0.005505,-0.262962,0.375809,0.661493,-221.98178,110.956425,116.182937,
898,-0.292661,0.423853,0.005505,-0.355953,0.429065,0.818764,-217.827511,113.600051,119.33011,
899,-0.281651,0.436697,0.009174,-0.470055,0.49031,0.966561,-205.805309,115.236581,117.567693,
900,-0.281651,0.436697,0.009174,-0.567055,0.552353,1.061302,-187.29993,121.21621,107.685569,
901,-0.281651,0.436697,0.009174,-0.590837,0.630639,1.165247,-166.717417,132.986638,93.460346,
902,-0.275229,0.450459,0.016514,-0.551289,0.672445,1.242394,-144.309543,146.897144,80.619879,
903,-0.275229,0.450459,0.016514,-0.491432,0.707594,1.29978,-121.524009,151.429073,70.423038,
904,-0.275229,0.450459,0.016514,-0.413138,0.757123,1.355813,-95.402471,144.190575,58.84144,
905,-0.262385,0.461468,0.019266,-0.306785,0.792538,1.386671,-69.469763,128.517652,48.770486,
906,-0.262385,0.461468,0.019266,-0.25254,0.804254,1.436208,-44.481207,104.536191,41.21727,
907,-0.253211,0.472477,0.017431,-0.25548,0.822628,1.493323,-17.919065,73.81978,33.978771,
908,-0.253211,0.472477,0.017431,-0.274452,0.827953,1.532573,8.768964,45.180504,23.089552,
909,-0.253211,0.472477,0.017431,-0.318543,0.822095,1.573718,33.065142,22.835574,12.51505,
910,-0.245872,0.476147,0.017431,-0.35141,0.799994,1.586982,55.724789,5.400234,2.569982,
911,-0.245872,0.476147,0.017431,-0.372253,0.791739,1.602411,77.377341,-8.447329,-7.752746,
912,-0.245872,0.476147,0.017431,-0.364504,0.759519,1.572635,96.323324,-19.336548,-17.194266,
913,-0.243119,0.477064,0.010092,-0.33992,0.721707,1.568304,113.884551,-29.72222,-25.43986,
914,-0.243119,0.477064,0.010092,-0.317474,0.679102,1.525535,131.131061,-40.170835,-33.559567,
915,-0.243119,0.473394,0.007339,-0.29476,0.640758,1.479518,146.615153,-49.612355,-41.4275,
916,-0.243119,0.473394,0.007339,-0.276323,0.590431,1.436478,160.588603,-58.487384,-47.658903,
917,-0.243119,0.473394,0.007339,-0.265367,0.537707,1.368264,172.736691,-67.110638,-54.33091,
918,-0.245872,0.468807,0.00367,-0.245593,0.478061,1.299239,182.429985,-73.971476,-59.177557,
919,-0.245872,0.468807,0.00367,-0.234637,0.417082,1.239416,190.549692,-80.202879,-62.450618,
920,-0.245872,0.468807,0.00367,-0.213526,0.365957,1.171202,197.59936,-86.245452,-63.77243,
921,-0.252294,0.462385,-0.001835,-0.199898,0.326281,1.089725,206.285558,-91.46976,-63.835374,
922,-0.252294,0.462385,-0.001835,-0.202036,0.306043,0.997149,214.153492,-97.008784,-63.709487,
923,-0.257798,0.450459,-0.010092,-0.191615,0.271161,0.894557,221.077273,-101.414827,-63.080052,
924,-0.257798,0.450459,-0.010092,-0.183598,0.229088,0.780326,222.147312,-102.799583,-61.128805,
925,-0.257798,0.450459,-0.010092,-0.163824,0.160122,0.644981,217.426552,-105.002605,-58.988727,
926,-0.266972,0.437615,-0.013761,-0.143248,0.075445,0.533186,207.04088,-111.485781,-57.541027,
927,-0.266972,0.437615,-0.013761,-0.129353,-0.012694,0.417602,190.297918,-118.976054,-55.77861,
928,-0.266972,0.437615,-0.013761,-0.152868,-0.079797,0.365629,170.281896,-126.843987,-53.009098,
929,-0.276147,0.423853,-0.022018,-0.190813,-0.141574,0.313657,148.440514,-133.830712,-50.86902,
930,-0.276147,0.423853,-0.022018,-0.230094,-0.195629,0.23624,120.430672,-136.663168,-46.777695,
931,-0.280734,0.414679,-0.023853,-0.282468,-0.217464,0.180478,87.825957,-133.390107,-39.665083,
932,-0.280734,0.414679,-0.023853,-0.331904,-0.216133,0.153138,49.682217,-122.752662,-28.209372,
933,-0.280734,0.414679,-0.023853,-0.38989,-0.224653,0.096564,8.391303,-107.268569,-13.039997,
934,-0.288991,0.40367,-0.018349,-0.460969,-0.205481,0.117678,-34.850857,-89.140851,1.059339,
935,-0.288991,0.40367,-0.018349,-0.478339,-0.180185,0.124986,-77.337696,-64.026409,15.221619,
936,-0.288991,0.40367,-0.018349,-0.477002,-0.139177,0.204298,-119.258044,-28.400407,32.153411,
937,-0.292661,0.401835,-0.016514,-0.481545,-0.082726,0.270347,-154.884046,10.183937,50.344072,
938,-0.292661,0.401835,-0.016514,-0.48689,-0.014824,0.273866,-186.418722,45.243447,65.513447,
939,-0.294495,0.404587,-0.009174,-0.465512,0.065592,0.307702,-213.925016,77.218728,74.45142,
940,-0.294495,0.404587,-0.009174,-0.408061,0.153731,0.381059,-235.577568,106.298609,80.745766,
941,-0.294495,0.404587,-0.009174,-0.373055,0.248793,0.4915,-249.110413,129.0212,86.410678,
942,-0.292661,0.414679,-0.002752,-0.389355,0.31776,0.566481,-257.04129,140.539854,89.054304,
943,-0.292661,0.414679,-0.002752,-0.430507,0.389656,0.704804,-257.670724,144.757066,85.025922,
944,-0.292661,0.414679,-0.002752,-0.464711,0.471936,0.851247,-247.285053,150.10726,75.206741,
945,-0.285321,0.42844,0.001835,-0.485553,0.56327,1.00933,-228.33907,155.016851,65.954052,
946,-0.285321,0.42844,0.001835,-0.476735,0.651143,1.120854,-202.658136,158.352854,60.037366,
947,-0.275229,0.440367,0.008257,-0.439859,0.731826,1.207745,-172.004668,161.248254,57.582571,
948,-0.275229,0.440367,0.008257,-0.34954,0.757655,1.259718,-140.847653,161.940632,57.645514,
949,-0.275229,0.440367,0.008257,-0.262694,0.764312,1.322518,-110.82362,155.268625,58.84144,
950,-0.266972,0.452294,0.008257,-0.185201,0.74301,1.373678,-82.436117,137.077963,57.582571,
951,-0.266972,0.452294,0.008257,-0.154204,0.742211,1.425109,-54.992766,110.32699,53.176528,
952,-0.266972,0.452294,0.008257,-0.164091,0.742743,1.458946,-28.052963,80.428844,46.693351,
953,-0.259633,0.46422,0.006422,-0.198562,0.717181,1.485744,-3.190294,51.034246,38.951305,
954,-0.259633,0.46422,0.006422,-0.261358,0.67644,1.518497,19.658184,25.542143,29.069181,
955,-0.252294,0.466972,0.005505,-0.318008,0.630906,1.514978,40.933075,5.966725,16.291658,
956,-0.252294,0.466972,0.005505,-0.339653,0.594425,1.509565,59.438454,-7.188459,2.444095,
957,-0.252294,0.466972,0.005505,-0.317741,0.570993,1.471939,76.244359,-16.252318,-9.578107,
958,-0.246789,0.46789,0.00367,-0.28327,0.548359,1.437832,90.7843,-27.456255,-20.341439,
959,-0.246789,0.46789,0.00367,-0.243989,0.528388,1.410221,103.813597,-41.555592,-29.971789,
960,-0.246789,0.46789,0.00367,-0.209785,0.49457,1.361768,116.276403,-56.410249,-38.34327,
961,-0.249541,0.466055,0,-0.167298,0.458356,1.29599,126.976792,-71.957285,-45.329995,
962,-0.249541,0.466055,0,-0.158747,0.417349,1.219926,136.040651,-85.741904,-49.610151,
963,-0.253211,0.463303,-0.005505,-0.145386,0.371282,1.150901,142.838545,-98.078823,-52.883211,
964,-0.253211,0.463303,-0.005505,-0.153403,0.314032,1.066175,148.440514,-108.716269,-55.275062,
965,-0.253211,0.463303,-0.005505,-0.161152,0.259178,0.980095,151.650631,-120.486697,-57.666914,
966,-0.257798,0.450459,-0.008257,-0.17478,0.208052,0.882376,152.028291,-130.620595,-59.995822,
967,-0.257798,0.450459,-0.008257,-0.191882,0.173436,0.775995,147.622249,-135.341355,-61.191748,
968,-0.257798,0.450459,-0.008257,-0.200967,0.121777,0.65229,137.614238,-135.026638,-59.177557,
969,-0.265138,0.443119,-0.009174,-0.219138,0.061598,0.543202,121.060106,-132.005351,-54.582684,
970,-0.265138,0.443119,-0.009174,-0.243188,0.005679,0.45983,100.60348,-129.676443,-48.351281,
971,-0.272477,0.434862,-0.010092,-0.278193,-0.040121,0.398112,79.643306,-124.263305,-41.175726,
972,-0.272477,0.434862,-0.010092,-0.315603,-0.073406,0.301476,55.535959,-114.381181,-31.734206,
973,-0.272477,0.434862,-0.010092,-0.357022,-0.1003,0.248962,25.260152,-100.093014,-20.7191,
974,-0.280734,0.426606,-0.005505,-0.386683,-0.107756,0.186974,-7.785167,-80.958201,-10.648146,
975,-0.280734,0.426606,-0.005505,-0.395234,-0.094442,0.15801,-43.348225,-59.87214,-0.954852,
976,-0.280734,0.426606,-0.005505,-0.376796,-0.076335,0.135272,-80.170152,-38.849023,8.864329,
977,-0.288073,0.423853,-0.004587,-0.349807,-0.048376,0.137709,-114.28551,-16.881753,19.564718,
978,-0.288073,0.423853,-0.004587,-0.326827,-0.002576,0.17371,-144.183657,0.364756,28.565633,
979,-0.292661,0.423853,0.001835,-0.312931,0.056272,0.249504,-169.109269,15.660018,35.552358,
980,-0.292661,0.423853,0.001835,-0.324689,0.135624,0.318259,-185.852231,30.325846,41.028439,
981,-0.292661,0.423853,0.001835,-0.326827,0.198466,0.397842,-198.818584,41.970387,45.056821,
982,-0.286239,0.431193,0.009174,-0.33511,0.273824,0.473364,-206.875348,52.230172,49.21109,
983,-0.286239,0.431193,0.009174,-0.397906,0.347583,0.584347,-209.393087,60.979313,52.421207,
984,-0.286239,0.431193,0.009174,-0.445738,0.437586,0.731331,-205.238818,66.392452,50.65879,
985,-0.283486,0.43945,0.017431,-0.49357,0.541968,0.850435,-193.216616,71.868533,46.315691,
986,-0.283486,0.43945,0.017431,-0.538195,0.619722,0.973057,-178.991393,75.959858,43.860895,
987,-0.280734,0.449541,0.023853,-0.58576,0.690286,1.140073,-157.905332,78.855258,40.965496,
988,-0.280734,0.449541,0.023853,-0.588432,0.777094,1.264049,-128.44779,82.443035,36.622397,
989,-0.280734,0.449541,0.023853,-0.544341,0.824492,1.33903,-96.283679,91.318064,34.985867,
990,-0.276147,0.456881,0.027523,-0.505595,0.847658,1.403996,-64.119569,100.256036,36.937114,
991,-0.276147,0.456881,0.027523,-0.44841,0.838604,1.431606,-32.270175,102.33317,38.762475,
992,-0.276147,0.456881,0.027523,-0.396837,0.819699,1.443516,-3.819729,95.97588,38.007153,
993,-0.269725,0.466055,0.03211,-0.366909,0.774431,1.450825,22.8683,80.932392,34.419376,
994,-0.269725,0.466055,0.03211,-0.359694,0.727832,1.439185,47.605082,62.112296,26.740273,
995,-0.266972,0.466055,0.030275,-0.364771,0.685759,1.432147,70.138843,43.732804,16.417545,
996,-0.266972,0.466055,0.030275,-0.352212,0.649812,1.426192,90.595469,26.926899,5.339495,
997,-0.266972,0.466055,0.030275,-0.336179,0.599751,1.395333,108.093753,12.261071,-5.612668,
998,-0.261468,0.466055,0.022936,-0.314802,0.560608,1.383965,124.773771,-1.649435,-14.991245,
999,-0.261468,0.466055,0.022936,-0.282736,0.523595,1.341737,139.250768,-17.00764,-24.369821,
1000,-0.261468,0.466055,0.022936,-0.258419,0.481256,1.297614,152.783613,-32.302902,-33.056019,
1001,-0.258716,0.46422,0.014679,-0.234637,0.424538,1.228859,162.413963,-48.038768,-40.861009,
1002,-0.258716,0.46422,0.014679,-0.214328,0.376874,1.182842,170.030122,-61.005122,-47.281242,
1003,-0.262385,0.455963,0.010092,-0.19883,0.318559,1.117335,174.939713,-72.39789,-51.813172,
1004,-0.262385,0.455963,0.010092,-0.191882,0.256782,1.022864,176.953904,-82.091183,-54.456797,
1005,-0.262385,0.455963,0.010092,-0.203639,0.201928,0.89185,173.680843,-88.700247,-55.58978,
1006,-0.266972,0.448624,0.001835,-0.179056,0.146009,0.786823,165.120532,-94.805763,-56.093328,
1007,-0.266972,0.448624,0.001835,-0.175582,0.099676,0.674216,155.867843,-103.617848,-55.463893,
1008,-0.266972,0.448624,0.001835,-0.192416,0.066924,0.564857,140.069033,-112.55582,-53.701476,
1009,-0.274312,0.43945,-0.000917,-0.230628,0.0371,0.475259,120.493615,-122.186171,-52.69438,
1010,-0.274312,0.43945,-0.000917,-0.256281,0.025916,0.392428,98.337515,-128.984065,-51.561398,
1011,-0.279817,0.429358,-0.001835,-0.300372,0.007011,0.317988,73.915451,-130.683538,-46.714751,
1012,-0.279817,0.429358,-0.001835,-0.368245,-0.018552,0.247067,46.912704,-125.962779,-39.035648,
1013,-0.279817,0.429358,-0.001835,-0.435317,-0.067814,0.187786,18.336371,-115.388276,-29.090581,
1014,-0.287156,0.422936,-0.002752,-0.486355,-0.129591,0.166402,-14.520118,-96.316406,-18.264305,
1015,-0.287156,0.422936,-0.002752,-0.525636,-0.173261,0.144476,-50.272006,-68.369508,-7.941577,
1016,-0.287156,0.422936,-0.002752,-0.522697,-0.161811,0.112535,-88.919294,-34.191206,1.311113,
1017,-0.292661,0.419266,0.005505,-0.476468,-0.122135,0.093316,-129.014281,4.267251,12.326219,
1018,-0.292661,0.419266,0.005505,-0.423826,-0.04811,0.111181,-166.843304,36.620192,23.404269,
1019,-0.295413,0.419266,0.012844,-0.363168,0.052012,0.154491,-199.573906,61.1052,31.77575,
1020,-0.295413,0.419266,0.012844,-0.297967,0.173968,0.240029,-222.17061,80.491788,37.188888,
1021,-0.295413,0.419266,0.012844,-0.233033,0.311369,0.339373,-235.325794,94.905841,44.805047,
1022,-0.29633,0.427523,0.015596,-0.151532,0.425071,0.430866,-241.808971,103.466153,57.771401,
1023,-0.29633,0.427523,0.015596,-0.112251,0.522263,0.531021,-244.011993,104.662078,76.654441,
1024,-0.29633,0.427523,0.015596,-0.113855,0.575519,0.665283,-241.620141,98.115958,98.558767,
1025,-0.290826,0.434862,0.022018,-0.252006,0.594958,0.809831,-233.500434,83.638961,116.749428,
1026,-0.290826,0.434862,0.022018,-0.491165,0.612799,1.007164,-214.428564,64.504148,119.518941,
1027,-0.283486,0.448624,0.031193,-0.698793,0.667919,1.200437,-183.83804,55.440289,103.279527,
1028,-0.283486,0.448624,0.031193,-0.818239,0.754992,1.338218,-145.127808,73.44212,81.249314,
1029,-0.283486,0.448624,0.031193,-0.843624,0.813308,1.425921,-103.773952,106.928043,64.065748,
1030,-0.274312,0.462385,0.034862,-0.779759,0.850853,1.462194,-62.860699,135.000829,52.358263,
1031,-0.274312,0.462385,0.034862,-0.654435,0.868694,1.466525,-24.087525,148.47073,40.461948,
1032,-0.274312,0.462385,0.034862,-0.498914,0.859108,1.477623,11.538477,147.148918,28.565633,
1033,-0.266972,0.469725,0.040367,-0.385614,0.849256,1.504151,46.786817,130.84656,17.298753,
1034,-0.266972,0.469725,0.040367,-0.318276,0.820231,1.470856,79.391532,109.194008,7.164855,
1035,-0.256881,0.47156,0.033945,-0.254678,0.764312,1.444328,105.701901,84.205452,-1.83606,
1036,-0.256881,0.47156,0.033945,-0.223948,0.711322,1.399665,126.03264,59.27984,-11.214637,
1037,-0.256881,0.47156,0.033945,-0.197761,0.662327,1.39777,140.572581,36.93491,-21.159704,
1038,-0.254128,0.473394,0.022018,-0.171841,0.611733,1.366099,153.853652,13.14228,-29.720016,
1039,-0.254128,0.473394,0.022018,-0.153403,0.571259,1.331721,165.498193,-10.398576,-37.210288,
1040,-0.254128,0.473394,0.022018,-0.135499,0.526524,1.30763,175.820921,-30.855202,-42.8752,
1041,-0.254128,0.46789,0.016514,-0.131224,0.479392,1.251868,183.688854,-50.493564,-47.910677,
1042,-0.254128,0.46789,0.016514,-0.138171,0.422674,1.212347,189.353766,-68.998942,-51.876115,
1043,-0.257798,0.456881,0.004587,-0.162221,0.354507,1.152525,193.319205,-83.538883,-54.267967,
1044,-0.257798,0.456881,0.004587,-0.170237,0.283143,1.111109,195.648113,-95.120481,-55.463893,
1045,-0.257798,0.456881,0.004587,-0.19108,0.223763,1.030714,194.452187,-101.855431,-55.904497,
1046,-0.26422,0.449541,-0.002752,-0.218069,0.167578,0.901325,188.220784,-101.918375,-55.086232,
1047,-0.26422,0.449541,-0.002752,-0.222077,0.130565,0.816869,179.408699,-103.869622,-54.016193,
1048,-0.26422,0.449541,-0.002752,-0.215931,0.105268,0.70724,169.08597,-110.91929,-52.883211,
1049,-0.269725,0.440367,-0.005505,-0.220207,0.080238,0.587595,154.3572,-113.562916,-51.750228,
1050,-0.269725,0.440367,-0.005505,-0.220207,0.03284,0.501516,135.914764,-113.059368,-50.491359,
1051,-0.275229,0.430275,-0.011009,-0.213259,-0.013493,0.402173,115.206364,-112.870538,-47.155355,
1052,-0.275229,0.430275,-0.011009,-0.201502,-0.06382,0.306348,91.16196,-113.877633,-42.434596,
1053,-0.275229,0.430275,-0.011009,-0.233835,-0.101898,0.244631,64.09627,-114.570011,-35.321984,
1054,-0.283486,0.422018,-0.011009,-0.284873,-0.132254,0.192659,34.324011,-110.415743,-24.747482,
1055,-0.283486,0.422018,-0.011009,-0.362901,-0.165007,0.160988,0.586314,-100.722449,-12.410563,
1056,-0.283486,0.422018,-0.011009,-0.439325,-0.154622,0.159364,-34.850857,-82.594731,-0.954852,
1057,-0.289908,0.415596,-0.008257,-0.469253,-0.117076,0.150702,-70.980406,-51.626546,11.445011,
1058,-0.289908,0.415596,-0.008257,-0.452953,-0.077933,0.183997,-108.620599,-12.160993,26.992047,
1059,-0.295413,0.412844,-0.000917,-0.414741,-0.015091,0.231367,-140.784709,26.171577,43.797952,
1060,-0.295413,0.412844,-0.000917,-0.376262,0.066125,0.292543,-164.514396,58.776292,58.400836,
1061,-0.295413,0.412844,-0.000917,-0.323353,0.158524,0.330169,-181.320301,86.471417,69.856547,
1062,-0.295413,0.419266,0.00367,-0.259221,0.23468,0.404067,-192.901899,107.998082,81.375201,
1063,-0.295413,0.419266,0.00367,-0.243722,0.297523,0.500704,-199.762736,120.460888,94.278611,
1064,-0.295413,0.419266,0.00367,-0.327895,0.335601,0.640921,-201.210436,126.440517,104.853113,
1065,-0.288991,0.426606,0.006422,-0.49544,0.386194,0.798192,-194.91609,126.503461,104.160735,
1066,-0.288991,0.426606,0.006422,-0.66833,0.472735,0.956545,-177.291919,129.461804,87.54366,
1067,-0.282569,0.442202,0.011927,-0.697991,0.577916,1.072401,-151.044494,145.512387,64.946956,
1068,-0.282569,0.442202,0.011927,-0.599655,0.638628,1.127892,-123.664087,169.116187,52.106489,
1069,-0.282569,0.442202,0.011927,-0.471124,0.661794,1.161457,-96.66134,186.929188,49.651694,
1070,-0.27156,0.452294,0.015596,-0.339386,0.658066,1.185278,-72.302219,187.055075,47.700447,
1071,-0.27156,0.452294,0.015596,-0.205243,0.658599,1.255116,-48.69842,168.80147,42.790857,
1072,-0.27156,0.452294,0.015596,-0.126948,0.663126,1.283268,-23.26926,140.665741,35.992962,
1073,-0.263303,0.46055,0.011927,-0.104769,0.663392,1.317646,-0.357838,108.312799,29.698616,
1074,-0.263303,0.46055,0.011927,-0.113587,0.650078,1.334158,19.658184,77.092841,22.648948,
1075,-0.254128,0.461468,0.006422,-0.14218,0.616793,1.361768,36.527032,46.691147,14.906901,
1076,-0.254128,0.461468,0.006422,-0.202303,0.582975,1.425651,53.458825,17.925983,3.828851,
1077,-0.254128,0.461468,0.006422,-0.263496,0.578182,1.448118,71.71243,-4.418947,-10.711089,
1078,-0.249541,0.462385,0,-0.272314,0.574188,1.463277,87.259465,-22.735495,-25.754577,
1079,-0.249541,0.462385,0,-0.254678,0.577916,1.454885,102.869445,-37.338379,-37.273231,
1080,-0.249541,0.462385,0,-0.250402,0.560608,1.446765,118.605311,-50.367677,-45.267051,
1081,-0.251376,0.459633,-0.005505,-0.223146,0.525725,1.423756,133.334082,-61.886331,-52.190833,
1082,-0.251376,0.459633,-0.005505,-0.204976,0.506286,1.392356,145.859832,-72.460833,-57.729858,
1083,-0.253211,0.455963,-0.005505,-0.197493,0.485783,1.338759,157.252599,-84.168318,-61.380579,
1084,-0.253211,0.455963,-0.005505,-0.198295,0.442645,1.286787,166.631175,-94.491046,-63.457713,
1085,-0.253211,0.455963,-0.005505,-0.20551,0.385129,1.223175,173.680843,-104.687887,-64.338921,
1086,-0.256881,0.445872,-0.010092,-0.217535,0.324417,1.157939,177.520395,-113.059368,-64.653639,
1087,-0.256881,0.445872,-0.010092,-0.238645,0.27196,1.105425,179.849303,-119.794319,-65.22013,
1088,-0.256881,0.445872,-0.010092,-0.251739,0.201395,1.008518,179.78636,-121.99734,-64.905413,
1089,-0.26789,0.433945,-0.014679,-0.27178,0.134825,0.899159,174.939713,-119.290771,-63.961261,
1090,-0.26789,0.433945,-0.014679,-0.279529,0.058935,0.78195,164.868758,-114.192351,-62.072957,
1091,-0.27156,0.425688,-0.018349,-0.274986,0.015265,0.669885,149.888213,-105.883813,-56.974536,
1092,-0.27156,0.425688,-0.018349,-0.268573,-0.013493,0.588678,131.634609,-100.848336,-48.791886,
1093,-0.27156,0.425688,-0.018349,-0.265901,-0.048642,0.492583,112.940399,-97.071728,-39.350366,
1094,-0.281651,0.414679,-0.019266,-0.289683,-0.068613,0.36969,89.147769,-91.595646,-30.790054,
1095,-0.281651,0.414679,-0.019266,-0.314802,-0.108289,0.270076,59.879058,-85.49013,-22.922121,
1096,-0.281651,0.414679,-0.019266,-0.362099,-0.141041,0.185891,27.652004,-78.692236,-15.368905,
1097,-0.287156,0.404587,-0.018349,-0.369848,-0.165007,0.151785,-6.526298,-68.558338,-7.375085,
1098,-0.287156,0.404587,-0.018349,-0.374391,-0.156486,0.122009,-42.089356,-53.451906,1.751717,
1099,-0.294495,0.401835,-0.015596,-0.343928,-0.15329,0.120385,-78.722453,-32.743506,13.459202,
1100,-0.294495,0.401835,-0.015596,-0.332438,-0.131189,0.123091,-113.530189,-9.517368,28.439746,
1101,-0.294495,0.401835,-0.015596,-0.321482,-0.087253,0.143393,-144.372487,9.743333,42.035535,
1102,-0.293578,0.40367,-0.012844,-0.314535,-0.021748,0.172357,-172.004668,33.66185,52.861811,
1103,-0.293578,0.40367,-0.012844,-0.303311,0.058935,0.222435,-194.223711,57.769197,62.1145,
1104,-0.293578,0.40367,-0.012844,-0.289149,0.130298,0.276843,-212.477316,75.330424,70.926586,
1105,-0.293578,0.410092,-0.005505,-0.262427,0.184886,0.333147,-228.150239,86.53436,78.479801,
1106,-0.293578,0.410092,-0.005505,-0.264031,0.232018,0.429783,-238.598854,95.157615,85.655356,
1107,-0.289908,0.424771,-0.001835,-0.343928,0.281812,0.56973,-243.382558,98.745393,88.298982,
1108,-0.289908,0.424771,-0.001835,-0.474598,0.385928,0.716173,-239.228289,100.067205,80.619879,
1109,-0.289908,0.424771,-0.001835,-0.547548,0.516938,0.861263,-225.569557,105.039739,65.702278,
1110,-0.282569,0.433945,0.006422,-0.534454,0.641557,0.999044,-203.665231,115.173637,55.505437,
1111,-0.282569,0.433945,0.006422,-0.491432,0.723305,1.117876,-177.85841,122.286249,52.924754,
1112,-0.282569,0.433945,0.006422,-0.437722,0.753128,1.214513,-149.974455,122.475079,51.099394,
1113,-0.275229,0.446789,0.010092,-0.383744,0.759253,1.31142,-119.887479,118.194923,47.57456,
1114,-0.275229,0.446789,0.010092,-0.328964,0.774431,1.361497,-91.185259,107.494534,43.105574,
1115,-0.266972,0.457798,0.012844,-0.306251,0.781088,1.399394,-63.616021,89.366816,38.007153,
1116,-0.266972,0.457798,0.012844,-0.309457,0.772301,1.445411,-36.424444,69.161964,31.083372,
1117,-0.266972,0.457798,0.012844,-0.312931,0.774431,1.491158,-9.673471,50.971303,23.341326,
1118,-0.258716,0.46422,0.015596,-0.341523,0.754726,1.533115,14.748593,33.410076,14.781014,
1119,-0.258716,0.46422,0.015596,-0.375193,0.731293,1.532573,37.848845,15.785905,3.577078,
1120,-0.258716,0.46422,0.015596,-0.396837,0.709192,1.540153,59.438454,0.868304,-9.326333,
1121,-0.255046,0.465138,0.011927,-0.386416,0.678836,1.530949,79.89508,-11.846276,-22.670347,
1122,-0.255046,0.465138,0.011927,-0.355953,0.645817,1.509565,100.288763,-22.987269,-34.566662,
1123,-0.253211,0.465138,0.010092,-0.317207,0.616527,1.46869,120.115954,-35.764793,-46.274147,
1124,-0.253211,0.465138,0.010092,-0.273383,0.574987,1.441351,137.740125,-48.038768,-55.275062,
1125,-0.253211,0.465138,0.010092,-0.238645,0.543299,1.387754,154.168369,-61.6975,-61.758239,
1126,-0.257798,0.459633,0.006422,-0.214595,0.492972,1.336864,169.652462,-75.482119,-66.416056,
1127,-0.257798,0.459633,0.006422,-0.206044,0.451166,1.282185,183.751798,-87.504321,-69.311455,
1128,-0.257798,0.459633,0.006422,-0.196425,0.399242,1.198001,194.263357,-97.764106,-69.752059,
1129,-0.262385,0.451376,0,-0.186805,0.323618,1.090537,201.250081,-106.072643,-68.682021,
1130,-0.262385,0.451376,0,-0.185469,0.263172,0.983885,205.278463,-110.604573,-67.297264,
1131,-0.268807,0.441284,-0.004587,-0.17959,0.204324,0.857744,204.586085,-115.010616,-66.478999,
1132,-0.268807,0.441284,-0.004587,-0.174246,0.14521,0.763002,197.977021,-120.738471,-66.416056,
1133,-0.268807,0.441284,-0.004587,-0.179056,0.083966,0.646335,188.283727,-127.095761,-66.038395,
1134,-0.279817,0.433028,-0.008257,-0.202838,0.00994,0.528855,173.366126,-132.320069,-64.653639,
1135,-0.279817,0.433028,-0.008257,-0.220474,-0.05956,0.406504,151.650631,-133.390107,-61.758239,
1136,-0.279817,0.433028,-0.008257,-0.238378,-0.143704,0.303371,125.025545,-130.935312,-56.030384,
1137,-0.288073,0.416514,-0.009174,-0.272581,-0.211073,0.203216,92.735547,-126.52927,-45.95943,
1138,-0.288073,0.416514,-0.009174,-0.322284,-0.267525,0.130941,56.857772,-119.038997,-31.482433,
1139,-0.295413,0.409174,-0.009174,-0.364237,-0.303472,0.083029,15.000367,-104.37317,-13.921206,
1140,-0.295413,0.409174,-0.009174,-0.409931,-0.313059,0.040802,-33.151384,-82.154127,4.773003,
1141,-0.295413,0.409174,-0.009174,-0.416611,-0.274714,-0.005216,-84.576195,-54.144285,19.879435,
1142,-0.299083,0.40367,-0.002752,-0.404052,-0.204949,-0.036886,-138.770518,-20.154813,34.734093,
1143,-0.299083,0.40367,-0.002752,-0.355419,-0.12613,0.002905,-189.125291,10.435711,49.588751,
1144,-0.299083,0.40367,-0.002752,-0.314,0.001152,0.126069,-231.80096,35.550154,62.932765,
1145,-0.302752,0.404587,0.001835,-0.288347,0.176099,0.22866,-258.426046,56.447384,71.36719,
1146,-0.302752,0.404587,0.001835,-0.221276,0.312701,0.33044,-275.294895,70.54672,80.99754,
1147,-0.298165,0.415596,0.010092,-0.193218,0.436787,0.438716,-281.903959,78.603484,95.663367,
1148,-0.298165,0.415596,0.010092,-0.223146,0.535045,0.551864,-278.882672,79.232918,111.525121,
1149,-0.298165,0.415596,0.010092,-0.295829,0.574188,0.661223,-272.777156,75.26748,123.86204,
1150,-0.294495,0.429358,0.019266,-0.4436,0.580312,0.842314,-260.566124,70.232003,130.156386,
1151,-0.294495,0.429358,0.019266,-0.681424,0.587236,1.055888,-236.584664,62.301126,123.799096,
1152,-0.294495,0.429358,0.019266,-0.912566,0.65061,1.251868,-200.329228,63.119391,97.803445,
1153,-0.283486,0.444037,0.02844,-1.009032,0.747537,1.394792,-155.576424,88.422664,66.142882,
1154,-0.283486,0.444037,0.02844,-0.967079,0.831681,1.48033,-106.354634,129.587691,41.846705,
1155,-0.277982,0.461468,0.03578,-0.825186,0.89479,1.485473,-58.139939,163.640105,26.236725,
1156,-0.277982,0.461468,0.03578,-0.612482,0.93127,1.470044,-14.394231,179.816576,15.095732,
1157,-0.277982,0.461468,0.03578,-0.378399,0.9563,1.453261,27.777891,174.025777,7.98312,
1158,-0.268807,0.465138,0.037615,-0.206312,0.911299,1.423215,61.704419,145.00884,4.52123,
1159,-0.268807,0.465138,0.037615,-0.124009,0.842865,1.38613,89.714261,102.33317,2.947643,
1160,-0.268807,0.465138,0.037615,-0.128819,0.740347,1.357437,112.185078,56.19561,-2.780212,
1161,-0.26422,0.465138,0.027523,-0.180926,0.639427,1.342549,128.424492,16.41534,-12.788223,
1162,-0.26422,0.465138,0.027523,-0.233835,0.564069,1.322518,137.551294,-10.902124,-24.558651,
1163,-0.262385,0.466055,0.015596,-0.268306,0.524393,1.307359,144.91568,-30.855202,-34.377832,
1164,-0.262385,0.466055,0.015596,-0.274452,0.480191,1.270816,150.139987,-45.70986,-41.742217,
1165,-0.262385,0.466055,0.015596,-0.249334,0.43013,1.24862,153.224217,-57.669119,-47.533016,
1166,-0.262385,0.455963,0.011009,-0.223146,0.3822,1.194752,155.175465,-69.061886,-52.442607,
1167,-0.262385,0.455963,0.011009,-0.208984,0.329742,1.155502,155.301352,-78.94401,-55.715667,
1168,-0.262385,0.455963,0.011009,-0.185736,0.259178,1.133306,154.042482,-87.756095,-56.974536,
1169,-0.266055,0.449541,0.002752,-0.181995,0.209117,1.075649,152.657726,-96.316406,-56.911593,
1170,-0.266055,0.449541,0.002752,-0.206312,0.161187,0.95059,150.202931,-99.778297,-56.156271,
1171,-0.276147,0.43945,0,-0.237309,0.130831,0.828509,142.775602,-99.085919,-55.652723,
1172,-0.276147,0.43945,0,-0.22662,0.111126,0.715361,130.816343,-101.792488,-54.897402,
1173,-0.276147,0.43945,0,-0.216466,0.096747,0.635237,118.22765,-105.694983,-52.379663,
1174,-0.281651,0.43211,-0.000917,-0.215931,0.077841,0.557549,106.079562,-106.261474,-48.099507,
1175,-0.281651,0.43211,-0.000917,-0.237576,0.040828,0.454145,91.16196,-104.750831,-41.742217,
1176,-0.281651,0.43211,-0.000917,-0.281667,-0.014824,0.371585,71.838316,-102.044262,-34.692549,
1177,-0.286239,0.421101,-0.001835,-0.350342,-0.067548,0.324214,49.619273,-95.498141,-26.824616,
1178,-0.286239,0.421101,-0.001835,-0.416077,-0.090981,0.276843,21.546488,-83.601826,-17.44604,
1179,-0.292661,0.418349,0,-0.456427,-0.105892,0.243278,-9.862302,-60.564518,-6.493877,
1180,-0.292661,0.418349,0,-0.448677,-0.101366,0.252481,-43.914716,-27.959803,6.913081,
1181,-0.292661,0.418349,0,-0.423826,-0.06595,0.25979,-78.155961,7.980916,23.656043,
1182,-0.297248,0.417431,0.002752,-0.367176,-0.014292,0.273866,-108.935316,41.8445,41.028439,
1183,-0.297248,0.417431,0.002752,-0.304113,0.053077,0.292002,-135.749232,71.679703,56.449588,
1184,-0.297248,0.417431,0.002752,-0.245058,0.110061,0.310409,-158.660654,93.269311,69.352999,
1185,-0.297248,0.417431,0.007339,-0.217268,0.173436,0.398383,-175.151841,106.235665,80.368105,
1186,-0.297248,0.417431,0.007339,-0.244791,0.250657,0.523442,-181.572075,111.711747,87.795434,
1187,-0.292661,0.426606,0.013761,-0.304113,0.348116,0.64823,-179.054336,114.418316,91.383212,
1188,-0.292661,0.426606,0.013761,-0.352747,0.427201,0.735662,-170.619912,116.68428,92.138533,
1189,-0.292661,0.426606,0.013761,-0.375727,0.474865,0.827697,-158.849484,121.027379,92.201477,
1190,-0.279817,0.437615,0.012844,-0.409129,0.510014,0.912423,-143.743052,126.944065,91.823816,
1191,-0.279817,0.437615,0.012844,-0.439859,0.544897,1.043707,-125.678278,128.265878,87.103056,
1192,-0.279817,0.437615,0.012844,-0.464711,0.591496,1.133035,-104.529273,125.055761,78.416858,
1193,-0.273394,0.447706,0.015596,-0.477804,0.633835,1.209911,-81.240191,120.964436,68.408847,
1194,-0.273394,0.447706,0.015596,-0.498113,0.674842,1.265132,-55.559257,116.998998,57.079023,
1195,-0.26422,0.456881,0.012844,-0.467917,0.693748,1.308713,-30.193041,112.844729,44.805047,
1196,-0.26422,0.456881,0.012844,-0.416611,0.69215,1.324142,-7.029846,106.613326,33.349337,
1197,-0.26422,0.456881,0.012844,-0.351143,0.692683,1.339842,12.986176,95.283502,22.460117,
1198,-0.255963,0.463303,0.010092,-0.272314,0.677771,1.352023,30.48446,79.610579,12.70388,
1199,-0.255963,0.463303,0.010092,-0.217268,0.659131,1.344985,47.353308,59.028066,3.325304,
1200,-0.255963,0.463303,0.010092,-0.177719,0.63277,1.347151,61.893249,33.598906,-4.857347,
1201,-0.252294,0.46789,0.004587,-0.181193,0.601082,1.322247,74.481942,4.896686,-13.039997,
1202,-0.252294,0.46789,0.004587,-0.185736,0.565401,1.325766,85.874709,-21.413683,-22.229743,
1203,-0.247706,0.46422,0.002752,-0.197226,0.529453,1.293283,95.316229,-44.325104,-30.223563,
1204,-0.247706,0.46422,0.002752,-0.208182,0.490576,1.289764,103.435936,-63.082257,-38.217383,
1205,-0.247706,0.46422,0.002752,-0.214328,0.441847,1.257823,109.604396,-78.251632,-44.952334,
1206,-0.254128,0.458716,-0.00367,-0.219405,0.387525,1.237251,115.395194,-90.02206,-50.617246,
1207,-0.254128,0.458716,-0.00367,-0.241852,0.332938,1.170932,120.493615,-98.330597,-55.338006,
1208,-0.254128,0.458716,-0.00367,-0.26697,0.301517,1.116794,123.640788,-104.18434,-59.681105,
1209,-0.255046,0.454128,-0.006422,-0.268039,0.277818,1.044249,122.696636,-106.576191,-61.884126,
1210,-0.255046,0.454128,-0.006422,-0.275254,0.245864,0.950049,119.234746,-106.576191,-61.002918,
1211,-0.263303,0.447706,-0.005505,-0.266168,0.21391,0.857473,113.192173,-107.142682,-57.729858,
1212,-0.263303,0.447706,-0.005505,-0.274719,0.172903,0.771393,109.541452,-106.0097,-54.456797,
1213,-0.263303,0.447706,-0.005505,-0.297967,0.136423,0.668531,102.743558,-102.673696,-52.757324,
1214,-0.270642,0.43945,-0.004587,-0.309992,0.087694,0.545368,91.917282,-96.819954,-50.931963,
1215,-0.270642,0.43945,-0.004587,-0.298234,0.045887,0.456311,77.629115,-89.077908,-46.400034,
1216,-0.270642,0.43945,-0.004587,-0.293959,-0.000445,0.342621,57.109546,-78.377519,-37.462062,
1217,-0.277064,0.429358,-0.006422,-0.303044,-0.061956,0.268452,31.365668,-69.31366,-26.446955,
1218,-0.277064,0.429358,-0.006422,-0.319612,-0.120272,0.235157,2.1599,-59.998027,-15.620679,
1219,-0.284404,0.423853,-0.005505,-0.323085,-0.150095,0.203486,-31.577797,-46.716956,-5.549725,
1220,-0.284404,0.423853,-0.005505,-0.305716,-0.154089,0.17344,-67.833233,-25.00146,6.913081,
1221,-0.284404,0.423853,-0.005505,-0.302243,-0.138379,0.129047,-108.117051,4.330195,22.648948,
1222,-0.286239,0.424771,-0.002752,-0.293959,-0.085123,0.181019,-148.149095,34.920719,39.328966,
1223,-0.286239,0.424771,-0.002752,-0.283537,0.031242,0.203216,-184.341587,59.342783,52.358263,
1224,-0.286239,0.424771,-0.002752,-0.249066,0.169442,0.250586,-213.358525,76.463406,59.344988,
1225,-0.285321,0.429358,0,-0.171573,0.286871,0.330169,-232.808056,89.42976,67.905299,
1226,-0.285321,0.429358,0,-0.122138,0.378472,0.455228,-244.137879,91.758668,80.556936,
1227,-0.281651,0.436697,0.007339,-0.154472,0.447705,0.592468,-245.900296,82.128318,92.07559,
1228,-0.281651,0.436697,0.007339,-0.251739,0.510813,0.709676,-237.528816,68.72136,96.79635,
1229,-0.281651,0.436697,0.007339,-0.361832,0.559542,0.825261,-226.324879,58.209801,94.908046,
1230,-0.27156,0.449541,0.014679,-0.47727,0.61839,0.980907,-208.952482,55.629119,89.557851,
1231,-0.27156,0.449541,0.014679,-0.57614,0.674842,1.130328,-184.908079,60.349879,81.878748,
1232,-0.27156,0.449541,0.014679,-0.644815,0.742211,1.245913,-154.632272,67.525434,70.171264,
1233,-0.266055,0.462385,0.025688,-0.648556,0.794934,1.349316,-119.258044,75.204537,57.267854,
1234,-0.266055,0.462385,0.025688,-0.649892,0.824492,1.41753,-80.86253,81.43594,42.413196,
1235,-0.259633,0.469725,0.033945,-0.602862,0.856978,1.452178,-41.585808,84.960774,25.103743,
1236,-0.259633,0.469725,0.033945,-0.522964,0.872688,1.463277,-5.896863,85.653152,9.556707,
1237,-0.259633,0.469725,0.033945,-0.434782,0.879079,1.465713,25.323096,76.463406,-2.717269,
1238,-0.254128,0.477982,0.033028,-0.37065,0.88041,1.460299,56.10245,58.146858,-13.039997,
1239,-0.254128,0.477982,0.033028,-0.316939,0.847658,1.431606,83.294027,38.193779,-22.733291,
1240,-0.254128,0.477982,0.033028,-0.281934,0.79307,1.401018,104.568918,19.814287,-31.230659,
1241,-0.253211,0.477064,0.031193,-0.246394,0.727565,1.368806,121.563654,-0.579396,-38.657988,
1242,-0.253211,0.477064,0.031193,-0.231697,0.660995,1.321435,135.851821,-20.09187,-44.952334,
1243,-0.253211,0.475229,0.022936,-0.213259,0.579514,1.297073,146.866927,-39.100796,-51.561398,
1244,-0.253211,0.475229,0.022936,-0.198028,0.529187,1.267297,154.986634,-55.843758,-58.044575,
1245,-0.253211,0.475229,0.022936,-0.192951,0.474865,1.23292,161.532755,-68.180677,-62.828278,
1246,-0.255046,0.466055,0.014679,-0.188141,0.424272,1.187173,167.07178,-77.118649,-65.40896,
1247,-0.255046,0.466055,0.014679,-0.197226,0.389656,1.144675,170.659557,-84.420091,-66.416056,
1248,-0.255046,0.466055,0.014679,-0.197761,0.339861,1.094056,173.177296,-89.581456,-66.478999,
1249,-0.259633,0.46055,0.010092,-0.20551,0.295126,1.01718,173.492013,-95.372254,-65.283073,
1250,-0.259633,0.46055,0.010092,-0.202036,0.252521,0.936785,171.351935,-99.148862,-64.590695,
1251,-0.26789,0.449541,0.004587,-0.216733,0.211248,0.830404,167.07178,-101.225997,-63.394769,
1252,-0.26789,0.449541,0.004587,-0.215397,0.16385,0.728083,161.469811,-106.450304,-63.394769,
1253,-0.26789,0.449541,0.004587,-0.208984,0.113523,0.617642,153.664821,-114.444124,-65.094243,
1254,-0.275229,0.437615,0.00367,-0.223948,0.053343,0.524795,141.516733,-116.584202,-66.164282,
1255,-0.275229,0.437615,0.00367,-0.250937,0.007809,0.414895,125.277319,-114.318237,-64.905413,
1256,-0.275229,0.437615,0.00367,-0.268039,-0.033997,0.330981,103.561823,-113.122312,-60.625257,
1257,-0.281651,0.431193,-0.000917,-0.276857,-0.060891,0.261143,77.692059,-111.045177,-53.323815,
1258,-0.281651,0.431193,-0.000917,-0.301441,-0.089649,0.212419,47.9198,-104.121396,-41.112783,
1259,-0.289908,0.422018,0,-0.344997,-0.126396,0.174252,11.853194,-93.735724,-26.950503,
1260,-0.289908,0.422018,0,-0.38214,-0.142639,0.179936,-26.794094,-80.014049,-13.102941,
1261,-0.289908,0.422018,0,-0.397639,-0.118141,0.165048,-68.085007,-59.620366,0.241074,
1262,-0.29633,0.416514,0.005505,-0.381606,-0.060358,0.176959,-108.242938,-32.177015,14.969845,
1263,-0.29633,0.416514,0.005505,-0.355419,0.02565,0.245443,-144.120713,-1.082943,33.538167,
1264,-0.29633,0.416514,0.005505,-0.345264,0.128168,0.277114,-173.074707,25.227425,50.532903,
1265,-0.300917,0.420183,0.011927,-0.333774,0.223763,0.344786,-194.223711,46.879977,64.191635,
1266,-0.300917,0.420183,0.011927,-0.309992,0.302049,0.440069,-207.253009,64.755921,76.339724,
1267,-0.297248,0.424771,0.018349,-0.306785,0.379004,0.547804,-212.351429,77.596388,88.613699,
1268,-0.297248,0.424771,0.018349,-0.331369,0.434391,0.643899,-212.666147,84.771943,98.747597,
1269,-0.297248,0.424771,0.018349,-0.379468,0.471936,0.720775,-208.260104,89.681534,105.482548,
1270,-0.294495,0.433945,0.024771,-0.476201,0.509748,0.857473,-198.692697,92.828707,106.61553,
1271,-0.294495,0.433945,0.024771,-0.57427,0.560874,1.004457,-182.264453,94.024633,98.999371,
1272,-0.294495,0.433945,0.024771,-0.656305,0.627178,1.13087,-157.590615,103.025548,86.662452,
1273,-0.282569,0.449541,0.030275,-0.680355,0.684162,1.221551,-128.888394,119.390849,74.010815,
1274,-0.282569,0.449541,0.030275,-0.636798,0.717181,1.282727,-98.10904,135.126716,63.75103,
1275,-0.273394,0.459633,0.033945,-0.577743,0.745939,1.317916,-67.014968,141.672836,53.176528,
1276,-0.273394,0.459633,0.033945,-0.484217,0.772034,1.329827,-34.913801,139.02921,40.776666,
1277,-0.273394,0.459633,0.033945,-0.36103,0.796532,1.349858,-4.889768,127.384669,28.250916,
1278,-0.266972,0.466055,0.033028,-0.264565,0.797597,1.367182,22.67947,107.242761,19.124114,
1279,-0.266972,0.466055,0.033028,-0.22662,0.774431,1.361768,47.982743,77.974049,10.815576,
1280,-0.266972,0.466055,0.033028,-0.225017,0.738749,1.386401,71.397712,45.432278,0.933452,
1281,-0.259633,0.470642,0.030275,-0.244524,0.695612,1.395333,91.602565,17.737153,-11.27758,
1282,-0.259633,0.470642,0.030275,-0.26697,0.66925,1.370971,108.974961,-3.411852,-24.180991,
1283,-0.255046,0.468807,0.019266,-0.278727,0.620787,1.355271,122.444863,-20.847191,-33.811341,
1284,-0.255046,0.468807,0.019266,-0.270177,0.585372,1.336052,134.655895,-36.583058,-41.364557,
1285,-0.255046,0.468807,0.019266,-0.255212,0.541435,1.297885,144.538019,-50.178846,-48.665999,
